acc,accuracy,average_response_time,avg_rt,background,canvas_backend,clock_backend,closed,color_backend,correct,correct_correct_response,correct_correct_response_training,correct_new_1_keyboard_response,correct_new_keyboard_response,correct_new_mouse_response,correct_response,correct_response_train,count_Consent_form,count_correct_response,count_correct_response_training,count_ecouteur_form,count_experiment,count_experiment_loop,count_getting_started,count_logger_exp,count_new_1_keyboard_response,count_new_keyboard_response,count_new_mouse_response,count_osweb,count_play_sampler1,count_play_sampler2,count_play_sound1,count_play_sound2,count_redirect_to_limesurvey,count_stim_fill_sequence,count_study_finished,count_training_loop,count_training_seq,count_training_sketchpad,count_welcome_exp_page,count_welome,crossOriginIsolated,cursor_roi,cursor_x,cursor_y,datetime,description,devicePixelRatio,disable_garbage_collection,experiment_path,font_bold,font_family,font_italic,font_size,font_underline,foreground,form_clicks,fullscreen,height,innerHeight,innerWidth,isBrowser,isSecureContext,jatos_uuid,keyboard_backend,length,mouse_backend,name,offscreenBuffering,opensesame_codename,opensesame_version,origin,outerHeight,outerWidth,pageXOffset,pageYOffset,penwidth,repeat_cycle,response,response_correct_response,response_correct_response_training,response_new_1_keyboard_response,response_new_keyboard_response,response_new_mouse_response,response_time,response_time_correct_response,response_time_correct_response_training,response_time_new_1_keyboard_response,response_time_new_keyboard_response,response_time_new_mouse_response,response_time_training_sketchpad,response_time_welcome_exp_page,response_time_welome,response_training_sketchpad,response_welcome_exp_page,response_welome,round_decimals,sampler_backend,screenLeft,screenTop,screenX,screenY,scrollX,scrollY,sessionid,sound1,sound2,sound_1,sound_2,sound_buf_size,sound_channels,sound_freq,sound_sample_size,start,status,subject_nr,subject_parity,time_correct_response,time_correct_response_training,time_experiment_loop,time_logger_exp,time_new_1_keyboard_response,time_new_keyboard_response,time_new_mouse_response,time_play_sampler1,time_play_sampler2,time_play_sound1,time_play_sound2,time_redirect_to_limesurvey,time_training_loop,time_training_sketchpad,time_welcome_exp_page,time_welome,title,total_correct,total_response_time,total_responses,width
50,50,5510,5510,#000000,osweb,osweb,0,osweb,1,1,1,undefined,undefined,undefined,m,q,0,0,1,0,0,0,0,0,0,0,0,0,1,1,0,0,0,0,0,0,1,0,0,0,0,stim0,-83,164.5,Mon Apr 21 2025 23:35:19 GMT+0200 (Central European Summer Time),The main experiment item,2,False,C:/Users/rekbi/OneDrive/Bureau,False,mono,False,18,no,#000000,no,no,768,865,1512,1,1,a75f6f75-437c-2915-eb43-01debc9446dd,osweb,0,osweb,,1,osweb,2.2.1,https://jatos.mindprobe.eu,945,1512,0,0,1,0,m,m,q,space,space,1,1025,1025,1710,6998,2836,17021,6401,23839,2587,space,space,space,2,osweb,0,37,0,37,0,0,1745271325733,train_a1,train_e1,fill_yu1,fill_yu1,1024,2,48000,-16,experiment,,0,even,25079753,25048593,27,25080782,25050314,25031938,25059983,25046515,25047756,25077034,25078393,25077015,23,25034819,25008037,25057369,Nouvelle expérience,3,33061,6,1024
57,57,4755,4755,#000000,osweb,osweb,0,osweb,1,1,1,undefined,undefined,undefined,q,q,0,1,1,0,0,0,0,1,0,0,0,0,1,1,1,1,0,1,0,0,1,0,0,0,0,stim0,-83,164.5,Mon Apr 21 2025 23:35:19 GMT+0200 (Central European Summer Time),The main experiment item,2,False,C:/Users/rekbi/OneDrive/Bureau,False,mono,False,18,no,#000000,no,no,768,865,1512,1,1,a75f6f75-437c-2915-eb43-01debc9446dd,osweb,0,osweb,,1,osweb,2.2.1,https://jatos.mindprobe.eu,945,1512,0,0,1,0,q,q,q,space,space,1,224,224,1710,6998,2836,17021,6401,23839,2587,space,space,space,2,osweb,0,37,0,37,0,0,1745271325733,train_a1,train_e1,fill_tao2,fill_tiao4,1024,2,48000,-16,experiment,,0,even,25083271,25048593,27,25083515,25050314,25031938,25059983,25046515,25047756,25080796,25082156,25077015,23,25034819,25008037,25057369,Nouvelle expérience,4,33285,7,1024
50,50,4279,4279,#000000,osweb,osweb,0,osweb,0,0,1,undefined,undefined,undefined,m,q,0,2,1,0,0,0,0,2,0,0,0,0,1,1,2,2,0,2,0,0,1,0,0,0,0,stim0,-83,164.5,Mon Apr 21 2025 23:35:19 GMT+0200 (Central European Summer Time),The main experiment item,2,False,C:/Users/rekbi/OneDrive/Bureau,False,mono,False,18,no,#000000,no,no,768,865,1512,1,1,a75f6f75-437c-2915-eb43-01debc9446dd,osweb,0,osweb,,1,osweb,2.2.1,https://jatos.mindprobe.eu,945,1512,0,0,1,0,q,q,q,space,space,1,949,949,1710,6998,2836,17021,6401,23839,2587,space,space,space,2,osweb,0,37,0,37,0,0,1745271325733,train_a1,train_e1,stim_dao3,stim_dao3,1024,2,48000,-16,experiment,,0,even,25085612,25048593,27,25086582,25050314,25031938,25059983,25046515,25047756,25083521,25084566,25077015,23,25034819,25008037,25057369,Nouvelle expérience,4,34234,8,1024
56,56,3940,3940,#000000,osweb,osweb,0,osweb,1,1,1,undefined,undefined,undefined,q,q,0,3,1,0,0,0,0,3,0,0,0,0,1,1,3,3,0,3,0,0,1,0,0,0,0,stim0,-83,164.5,Mon Apr 21 2025 23:35:19 GMT+0200 (Central European Summer Time),The main experiment item,2,False,C:/Users/rekbi/OneDrive/Bureau,False,mono,False,18,no,#000000,no,no,768,865,1512,1,1,a75f6f75-437c-2915-eb43-01debc9446dd,osweb,0,osweb,,1,osweb,2.2.1,https://jatos.mindprobe.eu,945,1512,0,0,1,0,q,q,q,space,space,1,1230,1230,1710,6998,2836,17021,6401,23839,2587,space,space,space,2,osweb,0,37,0,37,0,0,1745271325733,train_a1,train_e1,stim_ma1,stim_ma4,1024,2,48000,-16,experiment,,0,even,25088815,25048593,27,25090048,25050314,25031938,25059983,25046515,25047756,25086586,25087793,25077015,23,25034819,25008037,25057369,Nouvelle expérience,5,35464,9,1024
60,60,3644,3644,#000000,osweb,osweb,0,osweb,1,1,1,undefined,undefined,undefined,q,q,0,4,1,0,0,0,0,4,0,0,0,0,1,1,4,4,0,4,0,0,1,0,0,0,0,stim0,-83,164.5,Mon Apr 21 2025 23:35:19 GMT+0200 (Central European Summer Time),The main experiment item,2,False,C:/Users/rekbi/OneDrive/Bureau,False,mono,False,18,no,#000000,no,no,768,865,1512,1,1,a75f6f75-437c-2915-eb43-01debc9446dd,osweb,0,osweb,,1,osweb,2.2.1,https://jatos.mindprobe.eu,945,1512,0,0,1,0,q,q,q,space,space,1,980,980,1710,6998,2836,17021,6401,23839,2587,space,space,space,2,osweb,0,37,0,37,0,0,1745271325733,train_a1,train_e1,stim_ma1,stim_ma2,1024,2,48000,-16,experiment,,0,even,25092260,25048593,27,25093249,25050314,25031938,25059983,25046515,25047756,25090052,25091260,25077015,23,25034819,25008037,25057369,Nouvelle expérience,6,36444,10,1024
64,64,3361,3361,#000000,osweb,osweb,0,osweb,1,1,1,undefined,undefined,undefined,q,q,0,5,1,0,0,0,0,5,0,0,0,0,1,1,5,5,0,5,0,0,1,0,0,0,0,stim0,-83,164.5,Mon Apr 21 2025 23:35:19 GMT+0200 (Central European Summer Time),The main experiment item,2,False,C:/Users/rekbi/OneDrive/Bureau,False,mono,False,18,no,#000000,no,no,768,865,1512,1,1,a75f6f75-437c-2915-eb43-01debc9446dd,osweb,0,osweb,,1,osweb,2.2.1,https://jatos.mindprobe.eu,945,1512,0,0,1,0,q,q,q,space,space,1,529,529,1710,6998,2836,17021,6401,23839,2587,space,space,space,2,osweb,0,37,0,37,0,0,1745271325733,train_a1,train_e1,fill_la2,fill_ma2,1024,2,48000,-16,experiment,,0,even,25095577,25048593,27,25096115,25050314,25031938,25059983,25046515,25047756,25093252,25094577,25077015,23,25034819,25008037,25057369,Nouvelle expérience,7,36973,11,1024
67,67,3094,3094,#000000,osweb,osweb,0,osweb,1,1,1,undefined,undefined,undefined,q,q,0,6,1,0,0,0,0,6,0,0,0,0,1,1,6,6,0,6,0,0,1,0,0,0,0,stim0,-83,164.5,Mon Apr 21 2025 23:35:19 GMT+0200 (Central European Summer Time),The main experiment item,2,False,C:/Users/rekbi/OneDrive/Bureau,False,mono,False,18,no,#000000,no,no,768,865,1512,1,1,a75f6f75-437c-2915-eb43-01debc9446dd,osweb,0,osweb,,1,osweb,2.2.1,https://jatos.mindprobe.eu,945,1512,0,0,1,0,q,q,q,space,space,1,160,160,1710,6998,2836,17021,6401,23839,2587,space,space,space,2,osweb,0,37,0,37,0,0,1745271325733,train_a1,train_e1,fill_seng1,fill_song1,1024,2,48000,-16,experiment,,0,even,25098676,25048593,27,25098849,25050314,25031938,25059983,25046515,25047756,25096119,25097607,25077015,23,25034819,25008037,25057369,Nouvelle expérience,8,37133,12,1024
69,69,2911,2911,#000000,osweb,osweb,0,osweb,1,1,1,undefined,undefined,undefined,q,q,0,7,1,0,0,0,0,7,0,0,0,0,1,1,7,7,0,7,0,0,1,0,0,0,0,stim0,-83,164.5,Mon Apr 21 2025 23:35:19 GMT+0200 (Central European Summer Time),The main experiment item,2,False,C:/Users/rekbi/OneDrive/Bureau,False,mono,False,18,no,#000000,no,no,768,865,1512,1,1,a75f6f75-437c-2915-eb43-01debc9446dd,osweb,0,osweb,,1,osweb,2.2.1,https://jatos.mindprobe.eu,945,1512,0,0,1,0,q,q,q,space,space,1,714,714,1710,6998,2836,17021,6401,23839,2587,space,space,space,2,osweb,0,37,0,37,0,0,1745271325733,train_a1,train_e1,stim_ma2,stim_ma4,1024,2,48000,-16,experiment,,0,even,25100874,25048593,27,25101615,25050314,25031938,25059983,25046515,25047756,25098852,25099852,25077015,23,25034819,25008037,25057369,Nouvelle expérience,9,37847,13,1024
71,71,2841,2841,#000000,osweb,osweb,0,osweb,1,1,1,undefined,undefined,undefined,q,q,0,8,1,0,0,0,0,8,0,0,0,0,1,1,8,8,0,8,0,0,1,0,0,0,0,stim0,-83,164.5,Mon Apr 21 2025 23:35:19 GMT+0200 (Central European Summer Time),The main experiment item,2,False,C:/Users/rekbi/OneDrive/Bureau,False,mono,False,18,no,#000000,no,no,768,865,1512,1,1,a75f6f75-437c-2915-eb43-01debc9446dd,osweb,0,osweb,,1,osweb,2.2.1,https://jatos.mindprobe.eu,945,1512,0,0,1,0,q,q,q,space,space,1,1926,1926,1710,6998,2836,17021,6401,23839,2587,space,space,space,2,osweb,0,37,0,37,0,0,1745271325733,train_a1,train_e1,fill_li1,fill_la1,1024,2,48000,-16,experiment,,0,even,25104431,25048593,27,25106382,25050314,25031938,25059983,25046515,25047756,25101620,25103140,25077015,23,25034819,25008037,25057369,Nouvelle expérience,10,39773,14,1024
73,73,2767,2767,#000000,osweb,osweb,0,osweb,1,1,1,undefined,undefined,undefined,q,q,0,9,1,0,0,0,0,9,0,0,0,0,1,1,9,9,0,9,0,0,1,0,0,0,0,stim0,-83,164.5,Mon Apr 21 2025 23:35:19 GMT+0200 (Central European Summer Time),The main experiment item,2,False,C:/Users/rekbi/OneDrive/Bureau,False,mono,False,18,no,#000000,no,no,768,865,1512,1,1,a75f6f75-437c-2915-eb43-01debc9446dd,osweb,0,osweb,,1,osweb,2.2.1,https://jatos.mindprobe.eu,945,1512,0,0,1,0,q,q,q,space,space,1,1729,1729,1710,6998,2836,17021,6401,23839,2587,space,space,space,2,osweb,0,37,0,37,0,0,1745271325733,train_a1,train_e1,stim_yi2,stim_yi1,1024,2,48000,-16,experiment,,0,even,25108375,25048593,27,25110115,25050314,25031938,25059983,25046515,25047756,25106386,25107444,25077015,23,25034819,25008037,25057369,Nouvelle expérience,11,41502,15,1024
69,69,2732,2732,#000000,osweb,osweb,0,osweb,0,0,1,undefined,undefined,undefined,q,q,0,10,1,0,0,0,0,10,0,0,0,0,1,1,10,10,0,10,0,0,1,0,0,0,0,stim0,-83,164.5,Mon Apr 21 2025 23:35:19 GMT+0200 (Central European Summer Time),The main experiment item,2,False,C:/Users/rekbi/OneDrive/Bureau,False,mono,False,18,no,#000000,no,no,768,865,1512,1,1,a75f6f75-437c-2915-eb43-01debc9446dd,osweb,0,osweb,,1,osweb,2.2.1,https://jatos.mindprobe.eu,945,1512,0,0,1,0,m,m,q,space,space,1,2212,2212,1710,6998,2836,17021,6401,23839,2587,space,space,space,2,osweb,0,37,0,37,0,0,1745271325733,train_a1,train_e1,stim_dao2,stim_dao3,1024,2,48000,-16,experiment,,0,even,25112961,25048593,27,25115182,25050314,25031938,25059983,25046515,25047756,25110119,25111916,25077015,23,25034819,25008037,25057369,Nouvelle expérience,11,43714,16,1024
71,71,2575,2575,#000000,osweb,osweb,0,osweb,1,1,1,undefined,undefined,undefined,m,q,0,11,1,0,0,0,0,11,0,0,0,0,1,1,11,11,0,11,0,0,1,0,0,0,0,stim0,-83,164.5,Mon Apr 21 2025 23:35:19 GMT+0200 (Central European Summer Time),The main experiment item,2,False,C:/Users/rekbi/OneDrive/Bureau,False,mono,False,18,no,#000000,no,no,768,865,1512,1,1,a75f6f75-437c-2915-eb43-01debc9446dd,osweb,0,osweb,,1,osweb,2.2.1,https://jatos.mindprobe.eu,945,1512,0,0,1,0,m,m,q,space,space,1,62,62,1710,6998,2836,17021,6401,23839,2587,space,space,space,2,osweb,0,37,0,37,0,0,1745271325733,train_a1,train_e1,stim_sheng3,stim_sheng3,1024,2,48000,-16,experiment,,0,even,25118276,25048593,27,25118348,25050314,25031938,25059983,25046515,25047756,25115184,25116729,25077015,23,25034819,25008037,25057369,Nouvelle expérience,12,43776,17,1024
72,72,2668,2668,#000000,osweb,osweb,0,osweb,1,1,1,undefined,undefined,undefined,q,q,0,12,1,0,0,0,0,12,0,0,0,0,1,1,12,12,0,12,0,0,1,0,0,0,0,stim0,-83,164.5,Mon Apr 21 2025 23:35:19 GMT+0200 (Central European Summer Time),The main experiment item,2,False,C:/Users/rekbi/OneDrive/Bureau,False,mono,False,18,no,#000000,no,no,768,865,1512,1,1,a75f6f75-437c-2915-eb43-01debc9446dd,osweb,0,osweb,,1,osweb,2.2.1,https://jatos.mindprobe.eu,945,1512,0,0,1,0,q,q,q,space,space,1,4247,4247,1710,6998,2836,17021,6401,23839,2587,space,space,space,2,osweb,0,37,0,37,0,0,1745271325733,train_a1,train_e1,fill_pan2,fill_pang2,1024,2,48000,-16,experiment,,0,even,25121066,25048593,27,25125316,25050314,25031938,25059983,25046515,25047756,25118351,25119692,25077015,23,25034819,25008037,25057369,Nouvelle expérience,13,48023,18,1024
74,74,2545,2545,#000000,osweb,osweb,0,osweb,1,1,1,undefined,undefined,undefined,q,q,0,13,1,0,0,0,0,13,0,0,0,0,1,1,13,13,0,13,0,0,1,0,0,0,0,stim0,-83,164.5,Mon Apr 21 2025 23:35:19 GMT+0200 (Central European Summer Time),The main experiment item,2,False,C:/Users/rekbi/OneDrive/Bureau,False,mono,False,18,no,#000000,no,no,768,865,1512,1,1,a75f6f75-437c-2915-eb43-01debc9446dd,osweb,0,osweb,,1,osweb,2.2.1,https://jatos.mindprobe.eu,945,1512,0,0,1,0,q,q,q,space,space,1,338,338,1710,6998,2836,17021,6401,23839,2587,space,space,space,2,osweb,0,37,0,37,0,0,1745271325733,train_a1,train_e1,stim_ban2,stim_ban4,1024,2,48000,-16,experiment,,0,even,25127431,25048593,27,25127781,25050314,25031938,25059983,25046515,25047756,25125318,25126479,25077015,23,25034819,25008037,25057369,Nouvelle expérience,14,48361,19,1024
75,75,2448,2448,#000000,osweb,osweb,0,osweb,1,1,1,undefined,undefined,undefined,m,q,0,14,1,0,0,0,0,14,0,0,0,0,1,1,14,14,0,14,0,0,1,0,0,0,0,stim0,-83,164.5,Mon Apr 21 2025 23:35:19 GMT+0200 (Central European Summer Time),The main experiment item,2,False,C:/Users/rekbi/OneDrive/Bureau,False,mono,False,18,no,#000000,no,no,768,865,1512,1,1,a75f6f75-437c-2915-eb43-01debc9446dd,osweb,0,osweb,,1,osweb,2.2.1,https://jatos.mindprobe.eu,945,1512,0,0,1,0,m,m,q,space,space,1,592,592,1710,6998,2836,17021,6401,23839,2587,space,space,space,2,osweb,0,37,0,37,0,0,1745271325733,train_a1,train_e1,stim_yi1,stim_yi1,1024,2,48000,-16,experiment,,0,even,25129644,25048593,27,25130248,25050314,25031938,25059983,25046515,25047756,25127784,25128714,25077015,23,25034819,25008037,25057369,Nouvelle expérience,15,48953,20,1024
76,76,2370,2370,#000000,osweb,osweb,0,osweb,1,1,1,undefined,undefined,undefined,m,q,0,15,1,0,0,0,0,15,0,0,0,0,1,1,15,15,0,15,0,0,1,0,0,0,0,stim0,-83,164.5,Mon Apr 21 2025 23:35:19 GMT+0200 (Central European Summer Time),The main experiment item,2,False,C:/Users/rekbi/OneDrive/Bureau,False,mono,False,18,no,#000000,no,no,768,865,1512,1,1,a75f6f75-437c-2915-eb43-01debc9446dd,osweb,0,osweb,,1,osweb,2.2.1,https://jatos.mindprobe.eu,945,1512,0,0,1,0,m,m,q,space,space,1,827,827,1710,6998,2836,17021,6401,23839,2587,space,space,space,2,osweb,0,37,0,37,0,0,1745271325733,train_a1,train_e1,stim_ma2,stim_ma2,1024,2,48000,-16,experiment,,0,even,25132250,25048593,27,25133082,25050314,25031938,25059983,25046515,25047756,25130250,25131250,25077015,23,25034819,25008037,25057369,Nouvelle expérience,16,49780,21,1024
77,77,2304,2304,#000000,osweb,osweb,0,osweb,1,1,1,undefined,undefined,undefined,q,q,0,16,1,0,0,0,0,16,0,0,0,0,1,1,16,16,0,16,0,0,1,0,0,0,0,stim0,-83,164.5,Mon Apr 21 2025 23:35:19 GMT+0200 (Central European Summer Time),The main experiment item,2,False,C:/Users/rekbi/OneDrive/Bureau,False,mono,False,18,no,#000000,no,no,768,865,1512,1,1,a75f6f75-437c-2915-eb43-01debc9446dd,osweb,0,osweb,,1,osweb,2.2.1,https://jatos.mindprobe.eu,945,1512,0,0,1,0,q,q,q,space,space,1,904,904,1710,6998,2836,17021,6401,23839,2587,space,space,space,2,osweb,0,37,0,37,0,0,1745271325733,train_a1,train_e1,stim_yi2,stim_yi3,1024,2,48000,-16,experiment,,0,even,25135804,25048593,27,25136715,25050314,25031938,25059983,25046515,25047756,25133085,25134143,25077015,23,25034819,25008037,25057369,Nouvelle expérience,17,50684,22,1024
78,78,2296,2296,#000000,osweb,osweb,0,osweb,1,1,1,undefined,undefined,undefined,m,q,0,17,1,0,0,0,0,17,0,0,0,0,1,1,17,17,0,17,0,0,1,0,0,0,0,stim0,-83,164.5,Mon Apr 21 2025 23:35:19 GMT+0200 (Central European Summer Time),The main experiment item,2,False,C:/Users/rekbi/OneDrive/Bureau,False,mono,False,18,no,#000000,no,no,768,865,1512,1,1,a75f6f75-437c-2915-eb43-01debc9446dd,osweb,0,osweb,,1,osweb,2.2.1,https://jatos.mindprobe.eu,945,1512,0,0,1,0,m,m,q,space,space,1,2117,2117,1710,6998,2836,17021,6401,23839,2587,space,space,space,2,osweb,0,37,0,37,0,0,1745271325733,train_a1,train_e1,stim_yi3,stim_yi3,1024,2,48000,-16,experiment,,0,even,25140039,25048593,27,25142182,25050314,25031938,25059983,25046515,25047756,25136717,25138378,25077015,23,25034819,25008037,25057369,Nouvelle expérience,18,52801,23,1024
79,79,2216,2216,#000000,osweb,osweb,0,osweb,1,1,1,undefined,undefined,undefined,m,q,0,18,1,0,0,0,0,18,0,0,0,0,1,1,18,18,0,18,0,0,1,0,0,0,0,stim0,-83,164.5,Mon Apr 21 2025 23:35:19 GMT+0200 (Central European Summer Time),The main experiment item,2,False,C:/Users/rekbi/OneDrive/Bureau,False,mono,False,18,no,#000000,no,no,768,865,1512,1,1,a75f6f75-437c-2915-eb43-01debc9446dd,osweb,0,osweb,,1,osweb,2.2.1,https://jatos.mindprobe.eu,945,1512,0,0,1,0,m,m,q,space,space,1,381,381,1710,6998,2836,17021,6401,23839,2587,space,space,space,2,osweb,0,37,0,37,0,0,1745271325733,train_a1,train_e1,fill_pan2,fill_pan2,1024,2,48000,-16,experiment,,0,even,25144868,25048593,27,25145282,25050314,25031938,25059983,25046515,25047756,25142186,25143527,25077015,23,25034819,25008037,25057369,Nouvelle expérience,19,53182,24,1024
80,80,2144,2144,#000000,osweb,osweb,0,osweb,1,1,1,undefined,undefined,undefined,q,q,0,19,1,0,0,0,0,19,0,0,0,0,1,1,19,19,0,19,0,0,1,0,0,0,0,stim0,-83,164.5,Mon Apr 21 2025 23:35:19 GMT+0200 (Central European Summer Time),The main experiment item,2,False,C:/Users/rekbi/OneDrive/Bureau,False,mono,False,18,no,#000000,no,no,768,865,1512,1,1,a75f6f75-437c-2915-eb43-01debc9446dd,osweb,0,osweb,,1,osweb,2.2.1,https://jatos.mindprobe.eu,945,1512,0,0,1,0,q,q,q,space,space,1,407,407,1710,6998,2836,17021,6401,23839,2587,space,space,space,2,osweb,0,37,0,37,0,0,1745271325733,train_a1,train_e1,stim_sheng1,stim_sheng4,1024,2,48000,-16,experiment,,0,even,25147666,25048593,27,25148082,25050314,25031938,25059983,25046515,25047756,25145285,25146471,25077015,23,25034819,25008037,25057369,Nouvelle expérience,20,53589,25,1024
81,81,2100,2100,#000000,osweb,osweb,0,osweb,1,1,1,undefined,undefined,undefined,q,q,0,20,1,0,0,0,0,20,0,0,0,0,1,1,20,20,0,20,0,0,1,0,0,0,0,stim0,-83,164.5,Mon Apr 21 2025 23:35:19 GMT+0200 (Central European Summer Time),The main experiment item,2,False,C:/Users/rekbi/OneDrive/Bureau,False,mono,False,18,no,#000000,no,no,768,865,1512,1,1,a75f6f75-437c-2915-eb43-01debc9446dd,osweb,0,osweb,,1,osweb,2.2.1,https://jatos.mindprobe.eu,945,1512,0,0,1,0,q,q,q,space,space,1,1019,1019,1710,6998,2836,17021,6401,23839,2587,space,space,space,2,osweb,0,37,0,37,0,0,1745271325733,train_a1,train_e1,fill_bao3,fill_dao3,1024,2,48000,-16,experiment,,0,even,25150591,25048593,27,25151615,25050314,25031938,25059983,25046515,25047756,25148086,25149546,25077015,23,25034819,25008037,25057369,Nouvelle expérience,21,54608,26,1024
81,81,2033,2033,#000000,osweb,osweb,0,osweb,1,1,1,undefined,undefined,undefined,m,q,0,21,1,0,0,0,0,21,0,0,0,0,1,1,21,21,0,21,0,0,1,0,0,0,0,stim0,-83,164.5,Mon Apr 21 2025 23:35:19 GMT+0200 (Central European Summer Time),The main experiment item,2,False,C:/Users/rekbi/OneDrive/Bureau,False,mono,False,18,no,#000000,no,no,768,865,1512,1,1,a75f6f75-437c-2915-eb43-01debc9446dd,osweb,0,osweb,,1,osweb,2.2.1,https://jatos.mindprobe.eu,945,1512,0,0,1,0,m,m,q,space,space,1,282,282,1710,6998,2836,17021,6401,23839,2587,space,space,space,2,osweb,0,37,0,37,0,0,1745271325733,train_a1,train_e1,stim_ban3,stim_ban3,1024,2,48000,-16,experiment,,0,even,25154525,25048593,27,25154815,25050314,25031938,25059983,25046515,25047756,25151619,25153071,25077015,23,25034819,25008037,25057369,Nouvelle expérience,22,54890,27,1024
82,82,1967,1967,#000000,osweb,osweb,0,osweb,1,1,1,undefined,undefined,undefined,m,q,0,22,1,0,0,0,0,22,0,0,0,0,1,1,22,22,0,22,0,0,1,0,0,0,0,stim0,-83,164.5,Mon Apr 21 2025 23:35:19 GMT+0200 (Central European Summer Time),The main experiment item,2,False,C:/Users/rekbi/OneDrive/Bureau,False,mono,False,18,no,#000000,no,no,768,865,1512,1,1,a75f6f75-437c-2915-eb43-01debc9446dd,osweb,0,osweb,,1,osweb,2.2.1,https://jatos.mindprobe.eu,945,1512,0,0,1,0,m,m,q,space,space,1,185,185,1710,6998,2836,17021,6401,23839,2587,space,space,space,2,osweb,0,37,0,37,0,0,1745271325733,train_a1,train_e1,fill_pan3,fill_pan3,1024,2,48000,-16,experiment,,0,even,25157586,25048593,27,25157782,25050314,25031938,25059983,25046515,25047756,25154818,25156202,25077015,23,25034819,25008037,25057369,Nouvelle expérience,23,55075,28,1024
83,83,1904,1904,#000000,osweb,osweb,0,osweb,1,1,1,undefined,undefined,undefined,m,q,0,23,1,0,0,0,0,23,0,0,0,0,1,1,23,23,0,23,0,0,1,0,0,0,0,stim0,-83,164.5,Mon Apr 21 2025 23:35:19 GMT+0200 (Central European Summer Time),The main experiment item,2,False,C:/Users/rekbi/OneDrive/Bureau,False,mono,False,18,no,#000000,no,no,768,865,1512,1,1,a75f6f75-437c-2915-eb43-01debc9446dd,osweb,0,osweb,,1,osweb,2.2.1,https://jatos.mindprobe.eu,945,1512,0,0,1,0,m,m,q,space,space,1,133,133,1710,6998,2836,17021,6401,23839,2587,space,space,space,2,osweb,0,37,0,37,0,0,1745271325733,train_a1,train_e1,stim_ban2,stim_ban2,1024,2,48000,-16,experiment,,0,even,25160111,25048593,27,25160249,25050314,25031938,25059983,25046515,25047756,25157785,25158948,25077015,23,25034819,25008037,25057369,Nouvelle expérience,24,55208,29,1024
83,83,1859,1859,#000000,osweb,osweb,0,osweb,1,1,1,undefined,undefined,undefined,q,q,0,24,1,0,0,0,0,24,0,0,0,0,1,1,24,24,0,24,0,0,1,0,0,0,0,stim0,-83,164.5,Mon Apr 21 2025 23:35:19 GMT+0200 (Central European Summer Time),The main experiment item,2,False,C:/Users/rekbi/OneDrive/Bureau,False,mono,False,18,no,#000000,no,no,768,865,1512,1,1,a75f6f75-437c-2915-eb43-01debc9446dd,osweb,0,osweb,,1,osweb,2.2.1,https://jatos.mindprobe.eu,945,1512,0,0,1,0,q,q,q,space,space,1,569,569,1710,6998,2836,17021,6401,23839,2587,space,space,space,2,osweb,0,37,0,37,0,0,1745271325733,train_a1,train_e1,fill_pan1,fill_pan3,1024,2,48000,-16,experiment,,0,even,25162565,25048593,27,25163149,25050314,25031938,25059983,25046515,25047756,25160251,25161181,25077015,23,25034819,25008037,25057369,Nouvelle expérience,25,55777,30,1024
84,84,1843,1843,#000000,osweb,osweb,0,osweb,1,1,1,undefined,undefined,undefined,q,q,0,25,1,0,0,0,0,25,0,0,0,0,1,1,25,25,0,25,0,0,1,0,0,0,0,stim0,-83,164.5,Mon Apr 21 2025 23:35:19 GMT+0200 (Central European Summer Time),The main experiment item,2,False,C:/Users/rekbi/OneDrive/Bureau,False,mono,False,18,no,#000000,no,no,768,865,1512,1,1,a75f6f75-437c-2915-eb43-01debc9446dd,osweb,0,osweb,,1,osweb,2.2.1,https://jatos.mindprobe.eu,945,1512,0,0,1,0,q,q,q,space,space,1,1343,1343,1710,6998,2836,17021,6401,23839,2587,space,space,space,2,osweb,0,37,0,37,0,0,1745271325733,train_a1,train_e1,fill_pa4,fill_ba4,1024,2,48000,-16,experiment,,0,even,25165543,25048593,27,25166915,25050314,25031938,25059983,25046515,25047756,25163151,25164301,25077015,23,25034819,25008037,25057369,Nouvelle expérience,26,57120,31,1024
84,84,1818,1818,#000000,osweb,osweb,0,osweb,1,1,1,undefined,undefined,undefined,q,q,0,26,1,0,0,0,0,26,0,0,0,0,1,1,26,26,0,26,0,0,1,0,0,0,0,stim0,-83,164.5,Mon Apr 21 2025 23:35:19 GMT+0200 (Central European Summer Time),The main experiment item,2,False,C:/Users/rekbi/OneDrive/Bureau,False,mono,False,18,no,#000000,no,no,768,865,1512,1,1,a75f6f75-437c-2915-eb43-01debc9446dd,osweb,0,osweb,,1,osweb,2.2.1,https://jatos.mindprobe.eu,945,1512,0,0,1,0,q,q,q,space,space,1,1068,1068,1710,6998,2836,17021,6401,23839,2587,space,space,space,2,osweb,0,37,0,37,0,0,1745271325733,train_a1,train_e1,fill_mi1,fill_bi1,1024,2,48000,-16,experiment,,0,even,25169333,25048593,27,25170415,25050314,25031938,25059983,25046515,25047756,25166918,25168229,25077015,23,25034819,25008037,25057369,Nouvelle expérience,27,58188,32,1024
85,85,1850,1850,#000000,osweb,osweb,0,osweb,1,1,1,undefined,undefined,undefined,q,q,0,27,1,0,0,0,0,27,0,0,0,0,1,1,27,27,0,27,0,0,1,0,0,0,0,stim0,-83,164.5,Mon Apr 21 2025 23:35:19 GMT+0200 (Central European Summer Time),The main experiment item,2,False,C:/Users/rekbi/OneDrive/Bureau,False,mono,False,18,no,#000000,no,no,768,865,1512,1,1,a75f6f75-437c-2915-eb43-01debc9446dd,osweb,0,osweb,,1,osweb,2.2.1,https://jatos.mindprobe.eu,945,1512,0,0,1,0,q,q,q,space,space,1,2866,2866,1710,6998,2836,17021,6401,23839,2587,space,space,space,2,osweb,0,37,0,37,0,0,1745271325733,train_a1,train_e1,stim_ban1,stim_ban3,1024,2,48000,-16,experiment,,0,even,25173055,25048593,27,25175949,25050314,25031938,25059983,25046515,25047756,25170417,25171602,25077015,23,25034819,25008037,25057369,Nouvelle expérience,28,61054,33,1024
85,85,1838,1838,#000000,osweb,osweb,0,osweb,1,1,1,undefined,undefined,undefined,q,q,0,28,1,0,0,0,0,28,0,0,0,0,1,1,28,28,0,28,0,0,1,0,0,0,0,stim0,-83,164.5,Mon Apr 21 2025 23:35:19 GMT+0200 (Central European Summer Time),The main experiment item,2,False,C:/Users/rekbi/OneDrive/Bureau,False,mono,False,18,no,#000000,no,no,768,865,1512,1,1,a75f6f75-437c-2915-eb43-01debc9446dd,osweb,0,osweb,,1,osweb,2.2.1,https://jatos.mindprobe.eu,945,1512,0,0,1,0,q,q,q,space,space,1,1425,1425,1710,6998,2836,17021,6401,23839,2587,space,space,space,2,osweb,0,37,0,37,0,0,1745271325733,train_a1,train_e1,fill_seng1,fill_seng2,1024,2,48000,-16,experiment,,0,even,25178629,25048593,27,25180082,25050314,25031938,25059983,25046515,25047756,25175951,25177437,25077015,23,25034819,25008037,25057369,Nouvelle expérience,29,62479,34,1024
86,86,1825,1825,#000000,osweb,osweb,0,osweb,1,1,1,undefined,undefined,undefined,q,q,0,29,1,0,0,0,0,29,0,0,0,0,1,1,29,29,0,29,0,0,1,0,0,0,0,stim0,-83,164.5,Mon Apr 21 2025 23:35:19 GMT+0200 (Central European Summer Time),The main experiment item,2,False,C:/Users/rekbi/OneDrive/Bureau,False,mono,False,18,no,#000000,no,no,768,865,1512,1,1,a75f6f75-437c-2915-eb43-01debc9446dd,osweb,0,osweb,,1,osweb,2.2.1,https://jatos.mindprobe.eu,945,1512,0,0,1,0,q,q,q,space,space,1,1385,1385,1710,6998,2836,17021,6401,23839,2587,space,space,space,2,osweb,0,37,0,37,0,0,1745271325733,train_a1,train_e1,stim_dao1,stim_dao4,1024,2,48000,-16,experiment,,0,even,25182562,25048593,27,25183950,25050314,25031938,25059983,25046515,25047756,25180086,25181282,25077015,23,25034819,25008037,25057369,Nouvelle expérience,30,63864,35,1024
86,86,1798,1798,#000000,osweb,osweb,0,osweb,1,1,1,undefined,undefined,undefined,q,q,0,30,1,0,0,0,0,30,0,0,0,0,1,1,30,30,0,30,0,0,1,0,0,0,0,stim0,-83,164.5,Mon Apr 21 2025 23:35:19 GMT+0200 (Central European Summer Time),The main experiment item,2,False,C:/Users/rekbi/OneDrive/Bureau,False,mono,False,18,no,#000000,no,no,768,865,1512,1,1,a75f6f75-437c-2915-eb43-01debc9446dd,osweb,0,osweb,,1,osweb,2.2.1,https://jatos.mindprobe.eu,945,1512,0,0,1,0,q,q,q,space,space,1,872,872,1710,6998,2836,17021,6401,23839,2587,space,space,space,2,osweb,0,37,0,37,0,0,1745271325733,train_a1,train_e1,stim_sheng1,stim_sheng2,1024,2,48000,-16,experiment,,0,even,25186498,25048593,27,25187381,25050314,25031938,25059983,25046515,25047756,25183952,25185138,25077015,23,25034819,25008037,25057369,Nouvelle expérience,31,64736,36,1024
86,86,1753,1753,#000000,osweb,osweb,0,osweb,1,1,1,undefined,undefined,undefined,q,q,0,31,1,0,0,0,0,31,0,0,0,0,1,1,31,31,0,31,0,0,1,0,0,0,0,stim0,-83,164.5,Mon Apr 21 2025 23:35:19 GMT+0200 (Central European Summer Time),The main experiment item,2,False,C:/Users/rekbi/OneDrive/Bureau,False,mono,False,18,no,#000000,no,no,768,865,1512,1,1,a75f6f75-437c-2915-eb43-01debc9446dd,osweb,0,osweb,,1,osweb,2.2.1,https://jatos.mindprobe.eu,945,1512,0,0,1,0,q,q,q,space,space,1,141,141,1710,6998,2836,17021,6401,23839,2587,space,space,space,2,osweb,0,37,0,37,0,0,1745271325733,train_a1,train_e1,fill_sheng1,fill_shong1,1024,2,48000,-16,experiment,,0,even,25189722,25048593,27,25189882,25050314,25031938,25059983,25046515,25047756,25187384,25188570,25077015,23,25034819,25008037,25057369,Nouvelle expérience,32,64877,37,1024
87,87,1735,1735,#000000,osweb,osweb,0,osweb,1,1,1,undefined,undefined,undefined,q,q,0,32,1,0,0,0,0,32,0,0,0,0,1,1,32,32,0,32,0,0,1,0,0,0,0,stim0,-83,164.5,Mon Apr 21 2025 23:35:19 GMT+0200 (Central European Summer Time),The main experiment item,2,False,C:/Users/rekbi/OneDrive/Bureau,False,mono,False,18,no,#000000,no,no,768,865,1512,1,1,a75f6f75-437c-2915-eb43-01debc9446dd,osweb,0,osweb,,1,osweb,2.2.1,https://jatos.mindprobe.eu,945,1512,0,0,1,0,q,q,q,space,space,1,1052,1052,1710,6998,2836,17021,6401,23839,2587,space,space,space,2,osweb,0,37,0,37,0,0,1745271325733,train_a1,train_e1,fill_la1,fill_ma1,1024,2,48000,-16,experiment,,0,even,25192383,25048593,27,25193449,25050314,25031938,25059983,25046515,25047756,25189885,25191175,25077015,23,25034819,25008037,25057369,Nouvelle expérience,33,65929,38,1024
87,87,1705,1705,#000000,osweb,osweb,0,osweb,1,1,1,undefined,undefined,undefined,m,q,0,33,1,0,0,0,0,33,0,0,0,0,1,1,33,33,0,33,0,0,1,0,0,0,0,stim0,-83,164.5,Mon Apr 21 2025 23:35:19 GMT+0200 (Central European Summer Time),The main experiment item,2,False,C:/Users/rekbi/OneDrive/Bureau,False,mono,False,18,no,#000000,no,no,768,865,1512,1,1,a75f6f75-437c-2915-eb43-01debc9446dd,osweb,0,osweb,,1,osweb,2.2.1,https://jatos.mindprobe.eu,945,1512,0,0,1,0,m,m,q,space,space,1,584,584,1710,6998,2836,17021,6401,23839,2587,space,space,space,2,osweb,0,37,0,37,0,0,1745271325733,train_a1,train_e1,stim_sheng4,stim_sheng4,1024,2,48000,-16,experiment,,0,even,25195839,25048593,27,25196449,25050314,25031938,25059983,25046515,25047756,25193451,25194645,25077015,23,25034819,25008037,25057369,Nouvelle expérience,34,66513,39,1024
88,88,1669,1669,#000000,osweb,osweb,0,osweb,1,1,1,undefined,undefined,undefined,m,q,0,34,1,0,0,0,0,34,0,0,0,0,1,1,34,34,0,34,0,0,1,0,0,0,0,stim0,-83,164.5,Mon Apr 21 2025 23:35:19 GMT+0200 (Central European Summer Time),The main experiment item,2,False,C:/Users/rekbi/OneDrive/Bureau,False,mono,False,18,no,#000000,no,no,768,865,1512,1,1,a75f6f75-437c-2915-eb43-01debc9446dd,osweb,0,osweb,,1,osweb,2.2.1,https://jatos.mindprobe.eu,945,1512,0,0,1,0,m,m,q,space,space,1,251,251,1710,6998,2836,17021,6401,23839,2587,space,space,space,2,osweb,0,37,0,37,0,0,1745271325733,train_a1,train_e1,fill_seng4,fill_seng4,1024,2,48000,-16,experiment,,0,even,25200218,25048593,27,25200482,25050314,25031938,25059983,25046515,25047756,25196453,25198335,25077015,23,25034819,25008037,25057369,Nouvelle expérience,35,66764,40,1024
88,88,1668,1668,#000000,osweb,osweb,0,osweb,1,1,1,undefined,undefined,undefined,q,q,0,35,1,0,0,0,0,35,0,0,0,0,1,1,35,35,0,35,0,0,1,0,0,0,0,stim0,-83,164.5,Mon Apr 21 2025 23:35:19 GMT+0200 (Central European Summer Time),The main experiment item,2,False,C:/Users/rekbi/OneDrive/Bureau,False,mono,False,18,no,#000000,no,no,768,865,1512,1,1,a75f6f75-437c-2915-eb43-01debc9446dd,osweb,0,osweb,,1,osweb,2.2.1,https://jatos.mindprobe.eu,945,1512,0,0,1,0,q,q,q,space,space,1,1611,1611,1710,6998,2836,17021,6401,23839,2587,space,space,space,2,osweb,0,37,0,37,0,0,1745271325733,train_a1,train_e1,fill_tao2,fill_tao3,1024,2,48000,-16,experiment,,0,even,25203330,25048593,27,25204949,25050314,25031938,25059983,25046515,25047756,25200484,25201842,25077015,23,25034819,25008037,25057369,Nouvelle expérience,36,68375,41,1024
88,88,1676,1676,#000000,osweb,osweb,0,osweb,1,1,1,undefined,undefined,undefined,m,q,0,36,1,0,0,0,0,36,0,0,0,0,1,1,36,36,0,36,0,0,1,0,0,0,0,stim0,-83,164.5,Mon Apr 21 2025 23:35:19 GMT+0200 (Central European Summer Time),The main experiment item,2,False,C:/Users/rekbi/OneDrive/Bureau,False,mono,False,18,no,#000000,no,no,768,865,1512,1,1,a75f6f75-437c-2915-eb43-01debc9446dd,osweb,0,osweb,,1,osweb,2.2.1,https://jatos.mindprobe.eu,945,1512,0,0,1,0,m,m,q,space,space,1,1997,1997,1710,6998,2836,17021,6401,23839,2587,space,space,space,2,osweb,0,37,0,37,0,0,1745271325733,train_a1,train_e1,fill_yu3,fill_yu3,1024,2,48000,-16,experiment,,0,even,25207810,25048593,27,25209816,25050314,25031938,25059983,25046515,25047756,25204953,25206381,25077015,23,25034819,25008037,25057369,Nouvelle expérience,37,70372,42,1024
88,88,1648,1648,#000000,osweb,osweb,0,osweb,1,1,1,undefined,undefined,undefined,q,q,0,37,1,0,0,0,0,37,0,0,0,0,1,1,37,37,0,37,0,0,1,0,0,0,0,stim0,-83,164.5,Mon Apr 21 2025 23:35:19 GMT+0200 (Central European Summer Time),The main experiment item,2,False,C:/Users/rekbi/OneDrive/Bureau,False,mono,False,18,no,#000000,no,no,768,865,1512,1,1,a75f6f75-437c-2915-eb43-01debc9446dd,osweb,0,osweb,,1,osweb,2.2.1,https://jatos.mindprobe.eu,945,1512,0,0,1,0,q,q,q,space,space,1,482,482,1710,6998,2836,17021,6401,23839,2587,space,space,space,2,osweb,0,37,0,37,0,0,1745271325733,train_a1,train_e1,fill_qi2,fill_xi2,1024,2,48000,-16,experiment,,0,even,25212365,25048593,27,25212850,25050314,25031938,25059983,25046515,25047756,25209818,25211261,25077015,23,25034819,25008037,25057369,Nouvelle expérience,38,70854,43,1024
89,89,1690,1690,#000000,osweb,osweb,0,osweb,1,1,1,undefined,undefined,undefined,q,q,0,38,1,0,0,0,0,38,0,0,0,0,1,1,38,38,0,38,0,0,1,0,0,0,0,stim0,-83,164.5,Mon Apr 21 2025 23:35:19 GMT+0200 (Central European Summer Time),The main experiment item,2,False,C:/Users/rekbi/OneDrive/Bureau,False,mono,False,18,no,#000000,no,no,768,865,1512,1,1,a75f6f75-437c-2915-eb43-01debc9446dd,osweb,0,osweb,,1,osweb,2.2.1,https://jatos.mindprobe.eu,945,1512,0,0,1,0,q,q,q,space,space,1,3485,3485,1710,6998,2836,17021,6401,23839,2587,space,space,space,2,osweb,0,37,0,37,0,0,1745271325733,train_a1,train_e1,fill_tao1,fill_mao1,1024,2,48000,-16,experiment,,0,even,25215210,25048593,27,25218716,25050314,25031938,25059983,25046515,25047756,25212852,25214048,25077015,23,25034819,25008037,25057369,Nouvelle expérience,39,74339,44,1024
89,89,1657,1657,#000000,osweb,osweb,0,osweb,1,1,1,undefined,undefined,undefined,q,q,0,39,1,0,0,0,0,39,0,0,0,0,1,1,39,39,0,39,0,0,1,0,0,0,0,stim0,-83,164.5,Mon Apr 21 2025 23:35:19 GMT+0200 (Central European Summer Time),The main experiment item,2,False,C:/Users/rekbi/OneDrive/Bureau,False,mono,False,18,no,#000000,no,no,768,865,1512,1,1,a75f6f75-437c-2915-eb43-01debc9446dd,osweb,0,osweb,,1,osweb,2.2.1,https://jatos.mindprobe.eu,945,1512,0,0,1,0,q,q,q,space,space,1,227,227,1710,6998,2836,17021,6401,23839,2587,space,space,space,2,osweb,0,37,0,37,0,0,1745271325733,train_a1,train_e1,stim_dao2,stim_dao4,1024,2,48000,-16,experiment,,0,even,25221794,25048593,27,25222049,25050314,25031938,25059983,25046515,25047756,25218718,25220514,25077015,23,25034819,25008037,25057369,Nouvelle expérience,40,74566,45,1024
