PERSISTENT,TEMPORARY,acc,accuracy,average_response_time,avg_rt,background,canvas_backend,clock_backend,closed,color_backend,correct,correct_correct_response,correct_correct_response_training,correct_new_1_keyboard_response,correct_new_keyboard_response,correct_new_mouse_response,correct_response,correct_response_train,count_Consent_form,count_correct_response,count_correct_response_training,count_ecouteur_form,count_experiment,count_experiment_loop,count_getting_started,count_logger_exp,count_new_1_keyboard_response,count_new_keyboard_response,count_new_mouse_response,count_osweb,count_play_sampler1,count_play_sampler2,count_play_sound1,count_play_sound2,count_redirect_to_limesurvey,count_stim_fill_sequence,count_study_finished,count_training_loop,count_training_seq,count_training_sketchpad,count_welcome_exp_page,count_welome,credentialless,crossOriginIsolated,cursor_roi,cursor_x,cursor_y,datetime,description,devicePixelRatio,disable_garbage_collection,experiment_path,font_bold,font_family,font_italic,font_size,font_underline,foreground,form_clicks,fullscreen,height,innerHeight,innerWidth,isBrowser,isSecureContext,jatos_uuid,keyboard_backend,length,mouse_backend,name,opensesame_codename,opensesame_version,origin,originAgentCluster,outerHeight,outerWidth,pageXOffset,pageYOffset,penwidth,repeat_cycle,response,response_correct_response,response_correct_response_training,response_new_1_keyboard_response,response_new_keyboard_response,response_new_mouse_response,response_time,response_time_correct_response,response_time_correct_response_training,response_time_new_1_keyboard_response,response_time_new_keyboard_response,response_time_new_mouse_response,response_time_training_sketchpad,response_time_welcome_exp_page,response_time_welome,response_training_sketchpad,response_welcome_exp_page,response_welome,round_decimals,sampler_backend,screenLeft,screenTop,screenX,screenY,scrollX,scrollY,sessionid,sound1,sound2,sound_1,sound_2,sound_buf_size,sound_channels,sound_freq,sound_sample_size,start,status,subject_nr,subject_parity,time_correct_response,time_correct_response_training,time_experiment_loop,time_logger_exp,time_new_1_keyboard_response,time_new_keyboard_response,time_new_mouse_response,time_play_sampler1,time_play_sampler2,time_play_sound1,time_play_sound2,time_redirect_to_limesurvey,time_training_loop,time_training_sketchpad,time_welcome_exp_page,time_welome,title,total_correct,total_response_time,total_responses,width
1,0,33,33,1389,1389,#000000,osweb,osweb,0,osweb,1,1,0,undefined,undefined,undefined,q,m,0,0,1,0,0,0,0,0,0,0,0,0,1,1,0,0,0,0,0,0,1,0,0,0,0,0,stim0,108.01610520294179,-194.00225864487982,Sun Apr 27 2025 14:29:00 GMT+0200 (heure d’été d’Europe centrale),The main experiment item,0.699999988079071,False,C:/Users/rekbi/OneDrive/Bureau,False,mono,False,18,no,#000000,no,no,768,912,1940,1,1,a75f6f75-437c-2915-eb43-01debc9446dd,osweb,0,osweb,,osweb,2.2.1,https://jatos.mindprobe.eu,1,686,1301,0,0,1,0,q,q,q,space,space,1,3362,3362,2149,327,394,1200,962,1091,1149,space,space,space,2,osweb,0,0,0,0,0,0,1745756946160,train_e1,train_e1,stim_ma1,stim_ma2,1024,2,48000,-16,experiment,,0,even,24349,17266,99,27723,19423,11225,20923,15590,16423,22137,23346,22124,82,11625,10126,19761,Nouvelle expérience,2,8331,6,1024
1,0,29,29,1346,1346,#000000,osweb,osweb,0,osweb,0,0,0,undefined,undefined,undefined,q,m,0,1,1,0,0,0,0,1,0,0,0,0,1,1,1,1,0,1,0,0,1,0,0,0,0,0,stim0,108.01610520294179,-194.00225864487982,Sun Apr 27 2025 14:29:00 GMT+0200 (heure d’été d’Europe centrale),The main experiment item,0.699999988079071,False,C:/Users/rekbi/OneDrive/Bureau,False,mono,False,18,no,#000000,no,no,768,912,1940,1,1,a75f6f75-437c-2915-eb43-01debc9446dd,osweb,0,osweb,,osweb,2.2.1,https://jatos.mindprobe.eu,1,686,1301,0,0,1,0,m,m,q,space,space,1,1089,1089,2149,327,394,1200,962,1091,1149,space,space,space,2,osweb,0,0,0,0,0,0,1745756946160,train_e1,train_e1,fill_la1,fill_ma1,1024,2,48000,-16,experiment,,0,even,30226,17266,99,31322,19423,11225,20923,15590,16423,27729,29010,22124,82,11625,10126,19761,Nouvelle expérience,2,9420,7,1024
1,0,25,25,1367,1367,#000000,osweb,osweb,0,osweb,0,0,0,undefined,undefined,undefined,q,m,0,2,1,0,0,0,0,2,0,0,0,0,1,1,2,2,0,2,0,0,1,0,0,0,0,0,stim0,108.01610520294179,-194.00225864487982,Sun Apr 27 2025 14:29:00 GMT+0200 (heure d’été d’Europe centrale),The main experiment item,0.699999988079071,False,C:/Users/rekbi/OneDrive/Bureau,False,mono,False,18,no,#000000,no,no,768,912,1940,1,1,a75f6f75-437c-2915-eb43-01debc9446dd,osweb,0,osweb,,osweb,2.2.1,https://jatos.mindprobe.eu,1,686,1301,0,0,1,0,m,m,q,space,space,1,1513,1513,2149,327,394,1200,962,1091,1149,space,space,space,2,osweb,0,0,0,0,0,0,1745756946160,train_e1,train_e1,stim_ma1,stim_ma4,1024,2,48000,-16,experiment,,0,even,33554,17266,99,35072,19423,11225,20923,15590,16423,31324,32530,22124,82,11625,10126,19761,Nouvelle expérience,2,10933,8,1024
1,0,33,33,1287,1287,#000000,osweb,osweb,0,osweb,1,1,0,undefined,undefined,undefined,q,m,0,3,1,0,0,0,0,3,0,0,0,0,1,1,3,3,0,3,0,0,1,0,0,0,0,0,stim0,108.01610520294179,-194.00225864487982,Sun Apr 27 2025 14:29:00 GMT+0200 (heure d’été d’Europe centrale),The main experiment item,0.699999988079071,False,C:/Users/rekbi/OneDrive/Bureau,False,mono,False,18,no,#000000,no,no,768,912,1940,1,1,a75f6f75-437c-2915-eb43-01debc9446dd,osweb,0,osweb,,osweb,2.2.1,https://jatos.mindprobe.eu,1,686,1301,0,0,1,0,q,q,q,space,space,1,654,654,2149,327,394,1200,962,1091,1149,space,space,space,2,osweb,0,0,0,0,0,0,1745756946160,train_e1,train_e1,fill_li1,fill_la1,1024,2,48000,-16,experiment,,0,even,37885,17266,99,38555,19423,11225,20923,15590,16423,35074,36594,22124,82,11625,10126,19761,Nouvelle expérience,3,11587,9,1024
1,0,30,30,1206,1206,#000000,osweb,osweb,0,osweb,0,0,0,undefined,undefined,undefined,q,m,0,4,1,0,0,0,0,4,0,0,0,0,1,1,4,4,0,4,0,0,1,0,0,0,0,0,stim0,108.01610520294179,-194.00225864487982,Sun Apr 27 2025 14:29:00 GMT+0200 (heure d’été d’Europe centrale),The main experiment item,0.699999988079071,False,C:/Users/rekbi/OneDrive/Bureau,False,mono,False,18,no,#000000,no,no,768,912,1940,1,1,a75f6f75-437c-2915-eb43-01debc9446dd,osweb,0,osweb,,osweb,2.2.1,https://jatos.mindprobe.eu,1,686,1301,0,0,1,0,m,m,q,space,space,1,468,468,2149,327,394,1200,962,1091,1149,space,space,space,2,osweb,0,0,0,0,0,0,1745756946160,train_e1,train_e1,stim_ma2,stim_ma4,1024,2,48000,-16,experiment,,0,even,40583,17266,99,41055,19423,11225,20923,15590,16423,38557,39559,22124,82,11625,10126,19761,Nouvelle expérience,3,12055,10,1024
1,0,36,36,1257,1257,#000000,osweb,osweb,0,osweb,1,1,0,undefined,undefined,undefined,q,m,0,5,1,0,0,0,0,5,0,0,0,0,1,1,5,5,0,5,0,0,1,0,0,0,0,0,stim0,108.01610520294179,-194.00225864487982,Sun Apr 27 2025 14:29:00 GMT+0200 (heure d’été d’Europe centrale),The main experiment item,0.699999988079071,False,C:/Users/rekbi/OneDrive/Bureau,False,mono,False,18,no,#000000,no,no,768,912,1940,1,1,a75f6f75-437c-2915-eb43-01debc9446dd,osweb,0,osweb,,osweb,2.2.1,https://jatos.mindprobe.eu,1,686,1301,0,0,1,0,q,q,q,space,space,1,1777,1777,2149,327,394,1200,962,1091,1149,space,space,space,2,osweb,0,0,0,0,0,0,1745756946160,train_e1,train_e1,fill_la2,fill_ma2,1024,2,48000,-16,experiment,,0,even,43388,17266,99,45171,19423,11225,20923,15590,16423,41056,42386,22124,82,11625,10126,19761,Nouvelle expérience,4,13832,11,1024
1,0,42,42,1161,1161,#000000,osweb,osweb,0,osweb,1,1,0,undefined,undefined,undefined,m,m,0,6,1,0,0,0,0,6,0,0,0,0,1,1,6,6,0,6,0,0,1,0,0,0,0,0,stim0,108.01610520294179,-194.00225864487982,Sun Apr 27 2025 14:29:00 GMT+0200 (heure d’été d’Europe centrale),The main experiment item,0.699999988079071,False,C:/Users/rekbi/OneDrive/Bureau,False,mono,False,18,no,#000000,no,no,768,912,1940,1,1,a75f6f75-437c-2915-eb43-01debc9446dd,osweb,0,osweb,,osweb,2.2.1,https://jatos.mindprobe.eu,1,686,1301,0,0,1,0,m,m,q,space,space,1,105,105,2149,327,394,1200,962,1091,1149,space,space,space,2,osweb,0,0,0,0,0,0,1745756946160,train_e1,train_e1,stim_ma2,stim_ma2,1024,2,48000,-16,experiment,,0,even,47175,17266,99,47288,19423,11225,20923,15590,16423,45173,46173,22124,82,11625,10126,19761,Nouvelle expérience,5,13937,12,1024
1,0,38,38,1092,1092,#000000,osweb,osweb,0,osweb,0,0,0,undefined,undefined,undefined,q,m,0,7,1,0,0,0,0,7,0,0,0,0,1,1,7,7,0,7,0,0,1,0,0,0,0,0,stim0,108.01610520294179,-194.00225864487982,Sun Apr 27 2025 14:29:00 GMT+0200 (heure d’été d’Europe centrale),The main experiment item,0.699999988079071,False,C:/Users/rekbi/OneDrive/Bureau,False,mono,False,18,no,#000000,no,no,768,912,1940,1,1,a75f6f75-437c-2915-eb43-01debc9446dd,osweb,0,osweb,,osweb,2.2.1,https://jatos.mindprobe.eu,1,686,1301,0,0,1,0,m,m,q,space,space,1,263,263,2149,327,394,1200,962,1091,1149,space,space,space,2,osweb,0,0,0,0,0,0,1745756946160,train_e1,train_e1,fill_pa4,fill_ba4,1024,2,48000,-16,experiment,,0,even,49682,17266,99,49955,19423,11225,20923,15590,16423,47290,48434,22124,82,11625,10126,19761,Nouvelle expérience,5,14200,13,1024
1,0,43,43,1028,1028,#000000,osweb,osweb,0,osweb,1,1,0,undefined,undefined,undefined,m,m,0,8,1,0,0,0,0,8,0,0,0,0,1,1,8,8,0,8,0,0,1,0,0,0,0,0,stim0,108.01610520294179,-194.00225864487982,Sun Apr 27 2025 14:29:00 GMT+0200 (heure d’été d’Europe centrale),The main experiment item,0.699999988079071,False,C:/Users/rekbi/OneDrive/Bureau,False,mono,False,18,no,#000000,no,no,768,912,1940,1,1,a75f6f75-437c-2915-eb43-01debc9446dd,osweb,0,osweb,,osweb,2.2.1,https://jatos.mindprobe.eu,1,686,1301,0,0,1,0,m,m,q,space,space,1,196,196,2149,327,394,1200,962,1091,1149,space,space,space,2,osweb,0,0,0,0,0,0,1745756946160,train_e1,train_e1,stim_yi1,stim_yi1,1024,2,48000,-16,experiment,,0,even,51826,17266,99,52038,19423,11225,20923,15590,16423,49957,50888,22124,82,11625,10126,19761,Nouvelle expérience,6,14396,14,1024
1,0,47,47,1001,1001,#000000,osweb,osweb,0,osweb,1,1,0,undefined,undefined,undefined,m,m,0,9,1,0,0,0,0,9,0,0,0,0,1,1,9,9,0,9,0,0,1,0,0,0,0,0,stim0,108.01610520294179,-194.00225864487982,Sun Apr 27 2025 14:29:00 GMT+0200 (heure d’été d’Europe centrale),The main experiment item,0.699999988079071,False,C:/Users/rekbi/OneDrive/Bureau,False,mono,False,18,no,#000000,no,no,768,912,1940,1,1,a75f6f75-437c-2915-eb43-01debc9446dd,osweb,0,osweb,,osweb,2.2.1,https://jatos.mindprobe.eu,1,686,1301,0,0,1,0,m,m,q,space,space,1,625,625,2149,327,394,1200,962,1091,1149,space,space,space,2,osweb,0,0,0,0,0,0,1745756946160,train_e1,train_e1,fill_yu1,fill_yu1,1024,2,48000,-16,experiment,,0,even,54771,17266,99,55405,19423,11225,20923,15590,16423,52040,53404,22124,82,11625,10126,19761,Nouvelle expérience,7,15021,15,1024
1,0,44,44,965,965,#000000,osweb,osweb,0,osweb,0,0,0,undefined,undefined,undefined,q,m,0,10,1,0,0,0,0,10,0,0,0,0,1,1,10,10,0,10,0,0,1,0,0,0,0,0,stim0,108.01610520294179,-194.00225864487982,Sun Apr 27 2025 14:29:00 GMT+0200 (heure d’été d’Europe centrale),The main experiment item,0.699999988079071,False,C:/Users/rekbi/OneDrive/Bureau,False,mono,False,18,no,#000000,no,no,768,912,1940,1,1,a75f6f75-437c-2915-eb43-01debc9446dd,osweb,0,osweb,,osweb,2.2.1,https://jatos.mindprobe.eu,1,686,1301,0,0,1,0,m,m,q,space,space,1,418,418,2149,327,394,1200,962,1091,1149,space,space,space,2,osweb,0,0,0,0,0,0,1745756946160,train_e1,train_e1,stim_yi2,stim_yi3,1024,2,48000,-16,experiment,,0,even,58130,17266,99,58554,19423,11225,20923,15590,16423,55406,56466,22124,82,11625,10126,19761,Nouvelle expérience,7,15439,16,1024
1,0,47,47,3439,3439,#000000,osweb,osweb,0,osweb,1,1,0,undefined,undefined,undefined,q,m,0,11,1,0,0,0,0,11,0,0,0,0,1,1,11,11,0,11,0,0,1,0,0,0,0,0,stim0,108.01610520294179,-194.00225864487982,Sun Apr 27 2025 14:29:00 GMT+0200 (heure d’été d’Europe centrale),The main experiment item,0.699999988079071,False,C:/Users/rekbi/OneDrive/Bureau,False,mono,False,18,no,#000000,no,no,768,912,1940,1,1,a75f6f75-437c-2915-eb43-01debc9446dd,osweb,0,osweb,,osweb,2.2.1,https://jatos.mindprobe.eu,1,686,1301,0,0,1,0,q,q,q,space,space,1,43022,43022,2149,327,394,1200,962,1091,1149,space,space,space,2,osweb,0,0,0,0,0,0,1745756946160,train_e1,train_e1,fill_mi1,fill_bi1,1024,2,48000,-16,experiment,,0,even,60967,17266,99,104001,19423,11225,20923,15590,16423,58555,59858,22124,82,11625,10126,19761,Nouvelle expérience,8,58461,17,1024
1,0,50,50,3251,3251,#000000,osweb,osweb,0,osweb,1,1,0,undefined,undefined,undefined,m,m,0,12,1,0,0,0,0,12,0,0,0,0,1,1,12,12,0,12,0,0,1,0,0,0,0,0,stim0,108.01610520294179,-194.00225864487982,Sun Apr 27 2025 14:29:00 GMT+0200 (heure d’été d’Europe centrale),The main experiment item,0.699999988079071,False,C:/Users/rekbi/OneDrive/Bureau,False,mono,False,18,no,#000000,no,no,768,912,1940,1,1,a75f6f75-437c-2915-eb43-01debc9446dd,osweb,0,osweb,,osweb,2.2.1,https://jatos.mindprobe.eu,1,686,1301,0,0,1,0,m,m,q,space,space,1,54,54,2149,327,394,1200,962,1091,1149,space,space,space,2,osweb,0,0,0,0,0,0,1745756946160,train_e1,train_e1,stim_yi3,stim_yi3,1024,2,48000,-16,experiment,,0,even,107826,17266,99,107884,19423,11225,20923,15590,16423,104004,106168,22124,82,11625,10126,19761,Nouvelle expérience,9,58515,18,1024
1,0,53,53,3114,3114,#000000,osweb,osweb,0,osweb,1,1,0,undefined,undefined,undefined,m,m,0,13,1,0,0,0,0,13,0,0,0,0,1,1,13,13,0,13,0,0,1,0,0,0,0,0,stim0,108.01610520294179,-194.00225864487982,Sun Apr 27 2025 14:29:00 GMT+0200 (heure d’été d’Europe centrale),The main experiment item,0.699999988079071,False,C:/Users/rekbi/OneDrive/Bureau,False,mono,False,18,no,#000000,no,no,768,912,1940,1,1,a75f6f75-437c-2915-eb43-01debc9446dd,osweb,0,osweb,,osweb,2.2.1,https://jatos.mindprobe.eu,1,686,1301,0,0,1,0,m,m,q,space,space,1,644,644,2149,327,394,1200,962,1091,1149,space,space,space,2,osweb,0,0,0,0,0,0,1745756946160,train_e1,train_e1,fill_yu3,fill_yu3,1024,2,48000,-16,experiment,,0,even,110738,17266,99,111384,19423,11225,20923,15590,16423,107887,109309,22124,82,11625,10126,19761,Nouvelle expérience,10,59159,19,1024
1,0,50,50,2958,2958,#000000,osweb,osweb,0,osweb,0,0,0,undefined,undefined,undefined,q,m,0,14,1,0,0,0,0,14,0,0,0,0,1,1,14,14,0,14,0,0,1,0,0,0,0,0,stim0,108.01610520294179,-194.00225864487982,Sun Apr 27 2025 14:29:00 GMT+0200 (heure d’été d’Europe centrale),The main experiment item,0.699999988079071,False,C:/Users/rekbi/OneDrive/Bureau,False,mono,False,18,no,#000000,no,no,768,912,1940,1,1,a75f6f75-437c-2915-eb43-01debc9446dd,osweb,0,osweb,,osweb,2.2.1,https://jatos.mindprobe.eu,1,686,1301,0,0,1,0,m,m,q,space,space,1,0,0,2149,327,394,1200,962,1091,1149,space,space,space,2,osweb,0,0,0,0,0,0,1745756946160,train_e1,train_e1,stim_yi2,stim_yi1,1024,2,48000,-16,experiment,,0,even,113384,17266,99,113385,19423,11225,20923,15590,16423,111386,112445,22124,82,11625,10126,19761,Nouvelle expérience,10,59159,20,1024
1,0,48,48,2838,2838,#000000,osweb,osweb,0,osweb,0,0,0,undefined,undefined,undefined,q,m,0,15,1,0,0,0,0,15,0,0,0,0,1,1,15,15,0,15,0,0,1,0,0,0,0,0,stim0,108.01610520294179,-194.00225864487982,Sun Apr 27 2025 14:29:00 GMT+0200 (heure d’été d’Europe centrale),The main experiment item,0.699999988079071,False,C:/Users/rekbi/OneDrive/Bureau,False,mono,False,18,no,#000000,no,no,768,912,1940,1,1,a75f6f75-437c-2915-eb43-01debc9446dd,osweb,0,osweb,,osweb,2.2.1,https://jatos.mindprobe.eu,1,686,1301,0,0,1,0,m,m,q,space,space,1,431,431,2149,327,394,1200,962,1091,1149,space,space,space,2,osweb,0,0,0,0,0,0,1745756946160,train_e1,train_e1,fill_qi2,fill_xi2,1024,2,48000,-16,experiment,,0,even,115944,17266,99,116384,19423,11225,20923,15590,16423,113387,114834,22124,82,11625,10126,19761,Nouvelle expérience,10,59590,21,1024
1,0,45,45,2715,2715,#000000,osweb,osweb,0,osweb,0,0,0,undefined,undefined,undefined,q,m,0,16,1,0,0,0,0,16,0,0,0,0,1,1,16,16,0,16,0,0,1,0,0,0,0,0,stim0,108.01610520294179,-194.00225864487982,Sun Apr 27 2025 14:29:00 GMT+0200 (heure d’été d’Europe centrale),The main experiment item,0.699999988079071,False,C:/Users/rekbi/OneDrive/Bureau,False,mono,False,18,no,#000000,no,no,768,912,1940,1,1,a75f6f75-437c-2915-eb43-01debc9446dd,osweb,0,osweb,,osweb,2.2.1,https://jatos.mindprobe.eu,1,686,1301,0,0,1,0,m,m,q,space,space,1,146,146,2149,327,394,1200,962,1091,1149,space,space,space,2,osweb,0,0,0,0,0,0,1745756946160,train_e1,train_e1,stim_ban1,stim_ban3,1024,2,48000,-16,experiment,,0,even,119036,17266,99,119183,19423,11225,20923,15590,16423,116385,117575,22124,82,11625,10126,19761,Nouvelle expérience,10,59736,22,1024
1,0,43,43,2600,2600,#000000,osweb,osweb,0,osweb,0,0,0,undefined,undefined,undefined,q,m,0,17,1,0,0,0,0,17,0,0,0,0,1,1,17,17,0,17,0,0,1,0,0,0,0,0,stim0,108.01610520294179,-194.00225864487982,Sun Apr 27 2025 14:29:00 GMT+0200 (heure d’été d’Europe centrale),The main experiment item,0.699999988079071,False,C:/Users/rekbi/OneDrive/Bureau,False,mono,False,18,no,#000000,no,no,768,912,1940,1,1,a75f6f75-437c-2915-eb43-01debc9446dd,osweb,0,osweb,,osweb,2.2.1,https://jatos.mindprobe.eu,1,686,1301,0,0,1,0,m,m,q,space,space,1,75,75,2149,327,394,1200,962,1091,1149,space,space,space,2,osweb,0,0,0,0,0,0,1745756946160,train_e1,train_e1,fill_pan1,fill_pan3,1024,2,48000,-16,experiment,,0,even,121501,17266,99,121583,19423,11225,20923,15590,16423,119185,120114,22124,82,11625,10126,19761,Nouvelle expérience,10,59811,23,1024
1,0,42,42,2497,2497,#000000,osweb,osweb,0,osweb,0,0,0,undefined,undefined,undefined,q,m,0,18,1,0,0,0,0,18,0,0,0,0,1,1,18,18,0,18,0,0,1,0,0,0,0,0,stim0,108.01610520294179,-194.00225864487982,Sun Apr 27 2025 14:29:00 GMT+0200 (heure d’été d’Europe centrale),The main experiment item,0.699999988079071,False,C:/Users/rekbi/OneDrive/Bureau,False,mono,False,18,no,#000000,no,no,768,912,1940,1,1,a75f6f75-437c-2915-eb43-01debc9446dd,osweb,0,osweb,,osweb,2.2.1,https://jatos.mindprobe.eu,1,686,1301,0,0,1,0,m,m,q,space,space,1,113,113,2149,327,394,1200,962,1091,1149,space,space,space,2,osweb,0,0,0,0,0,0,1745756946160,train_e1,train_e1,stim_ban2,stim_ban4,1024,2,48000,-16,experiment,,0,even,123700,17266,99,123816,19423,11225,20923,15590,16423,121585,122738,22124,82,11625,10126,19761,Nouvelle expérience,10,59924,24,1024
1,0,40,40,2406,2406,#000000,osweb,osweb,0,osweb,0,0,0,undefined,undefined,undefined,q,m,0,19,1,0,0,0,0,19,0,0,0,0,1,1,19,19,0,19,0,0,1,0,0,0,0,0,stim0,108.01610520294179,-194.00225864487982,Sun Apr 27 2025 14:29:00 GMT+0200 (heure d’été d’Europe centrale),The main experiment item,0.699999988079071,False,C:/Users/rekbi/OneDrive/Bureau,False,mono,False,18,no,#000000,no,no,768,912,1940,1,1,a75f6f75-437c-2915-eb43-01debc9446dd,osweb,0,osweb,,osweb,2.2.1,https://jatos.mindprobe.eu,1,686,1301,0,0,1,0,m,m,q,space,space,1,221,221,2149,327,394,1200,962,1091,1149,space,space,space,2,osweb,0,0,0,0,0,0,1745756946160,train_e1,train_e1,fill_pan2,fill_pang2,1024,2,48000,-16,experiment,,0,even,126535,17266,99,126766,19423,11225,20923,15590,16423,123818,125160,22124,82,11625,10126,19761,Nouvelle expérience,10,60145,25,1024
1,0,42,42,2319,2319,#000000,osweb,osweb,0,osweb,1,1,0,undefined,undefined,undefined,m,m,0,20,1,0,0,0,0,20,0,0,0,0,1,1,20,20,0,20,0,0,1,0,0,0,0,0,stim0,108.01610520294179,-194.00225864487982,Sun Apr 27 2025 14:29:00 GMT+0200 (heure d’été d’Europe centrale),The main experiment item,0.699999988079071,False,C:/Users/rekbi/OneDrive/Bureau,False,mono,False,18,no,#000000,no,no,768,912,1940,1,1,a75f6f75-437c-2915-eb43-01debc9446dd,osweb,0,osweb,,osweb,2.2.1,https://jatos.mindprobe.eu,1,686,1301,0,0,1,0,m,m,q,space,space,1,136,136,2149,327,394,1200,962,1091,1149,space,space,space,2,osweb,0,0,0,0,0,0,1745756946160,train_e1,train_e1,stim_ban3,stim_ban3,1024,2,48000,-16,experiment,,0,even,129682,17266,99,129833,19423,11225,20923,15590,16423,126768,128221,22124,82,11625,10126,19761,Nouvelle expérience,11,60281,26,1024
1,0,44,44,2240,2240,#000000,osweb,osweb,0,osweb,1,1,0,undefined,undefined,undefined,m,m,0,21,1,0,0,0,0,21,0,0,0,0,1,1,21,21,0,21,0,0,1,0,0,0,0,0,stim0,108.01610520294179,-194.00225864487982,Sun Apr 27 2025 14:29:00 GMT+0200 (heure d’été d’Europe centrale),The main experiment item,0.699999988079071,False,C:/Users/rekbi/OneDrive/Bureau,False,mono,False,18,no,#000000,no,no,768,912,1940,1,1,a75f6f75-437c-2915-eb43-01debc9446dd,osweb,0,osweb,,osweb,2.2.1,https://jatos.mindprobe.eu,1,686,1301,0,0,1,0,m,m,q,space,space,1,193,193,2149,327,394,1200,962,1091,1149,space,space,space,2,osweb,0,0,0,0,0,0,1745756946160,train_e1,train_e1,fill_pan3,fill_pan3,1024,2,48000,-16,experiment,,0,even,132605,17266,99,132799,19423,11225,20923,15590,16423,129834,131218,22124,82,11625,10126,19761,Nouvelle expérience,12,60474,27,1024
1,0,46,46,2162,2162,#000000,osweb,osweb,0,osweb,1,1,0,undefined,undefined,undefined,m,m,0,22,1,0,0,0,0,22,0,0,0,0,1,1,22,22,0,22,0,0,1,0,0,0,0,0,stim0,108.01610520294179,-194.00225864487982,Sun Apr 27 2025 14:29:00 GMT+0200 (heure d’été d’Europe centrale),The main experiment item,0.699999988079071,False,C:/Users/rekbi/OneDrive/Bureau,False,mono,False,18,no,#000000,no,no,768,912,1940,1,1,a75f6f75-437c-2915-eb43-01debc9446dd,osweb,0,osweb,,osweb,2.2.1,https://jatos.mindprobe.eu,1,686,1301,0,0,1,0,m,m,q,space,space,1,48,48,2149,327,394,1200,962,1091,1149,space,space,space,2,osweb,0,0,0,0,0,0,1745756946160,train_e1,train_e1,stim_ban2,stim_ban2,1024,2,48000,-16,experiment,,0,even,135122,17266,99,135183,19423,11225,20923,15590,16423,132801,133959,22124,82,11625,10126,19761,Nouvelle expérience,13,60522,28,1024
1,0,48,48,2116,2116,#000000,osweb,osweb,0,osweb,1,1,0,undefined,undefined,undefined,m,m,0,23,1,0,0,0,0,23,0,0,0,0,1,1,23,23,0,23,0,0,1,0,0,0,0,0,stim0,108.01610520294179,-194.00225864487982,Sun Apr 27 2025 14:29:00 GMT+0200 (heure d’été d’Europe centrale),The main experiment item,0.699999988079071,False,C:/Users/rekbi/OneDrive/Bureau,False,mono,False,18,no,#000000,no,no,768,912,1940,1,1,a75f6f75-437c-2915-eb43-01debc9446dd,osweb,0,osweb,,osweb,2.2.1,https://jatos.mindprobe.eu,1,686,1301,0,0,1,0,m,m,q,space,space,1,849,849,2149,327,394,1200,962,1091,1149,space,space,space,2,osweb,0,0,0,0,0,0,1745756946160,train_e1,train_e1,fill_pan2,fill_pan2,1024,2,48000,-16,experiment,,0,even,137866,17266,99,138716,19423,11225,20923,15590,16423,135184,136519,22124,82,11625,10126,19761,Nouvelle expérience,14,61371,29,1024
1,0,47,47,2051,2051,#000000,osweb,osweb,0,osweb,0,0,0,undefined,undefined,undefined,q,m,0,24,1,0,0,0,0,24,0,0,0,0,1,1,24,24,0,24,0,0,1,0,0,0,0,0,stim0,108.01610520294179,-194.00225864487982,Sun Apr 27 2025 14:29:00 GMT+0200 (heure d’été d’Europe centrale),The main experiment item,0.699999988079071,False,C:/Users/rekbi/OneDrive/Bureau,False,mono,False,18,no,#000000,no,no,768,912,1940,1,1,a75f6f75-437c-2915-eb43-01debc9446dd,osweb,0,osweb,,osweb,2.2.1,https://jatos.mindprobe.eu,1,686,1301,0,0,1,0,m,m,q,space,space,1,145,145,2149,327,394,1200,962,1091,1149,space,space,space,2,osweb,0,0,0,0,0,0,1745756946160,train_e1,train_e1,stim_dao2,stim_dao3,1024,2,48000,-16,experiment,,0,even,141565,17266,99,141716,19423,11225,20923,15590,16423,138718,140519,22124,82,11625,10126,19761,Nouvelle expérience,14,61516,30,1024
1,0,45,45,1998,1998,#000000,osweb,osweb,0,osweb,0,0,0,undefined,undefined,undefined,q,m,0,25,1,0,0,0,0,25,0,0,0,0,1,1,25,25,0,25,0,0,1,0,0,0,0,0,stim0,108.01610520294179,-194.00225864487982,Sun Apr 27 2025 14:29:00 GMT+0200 (heure d’été d’Europe centrale),The main experiment item,0.699999988079071,False,C:/Users/rekbi/OneDrive/Bureau,False,mono,False,18,no,#000000,no,no,768,912,1940,1,1,a75f6f75-437c-2915-eb43-01debc9446dd,osweb,0,osweb,,osweb,2.2.1,https://jatos.mindprobe.eu,1,686,1301,0,0,1,0,m,m,q,space,space,1,407,407,2149,327,394,1200,962,1091,1149,space,space,space,2,osweb,0,0,0,0,0,0,1745756946160,train_e1,train_e1,fill_tao2,fill_tao3,1024,2,48000,-16,experiment,,0,even,144573,17266,99,144982,19423,11225,20923,15590,16423,141717,143080,22124,82,11625,10126,19761,Nouvelle expérience,14,61923,31,1024
1,0,44,44,1939,1939,#000000,osweb,osweb,0,osweb,0,0,0,undefined,undefined,undefined,q,m,0,26,1,0,0,0,0,26,0,0,0,0,1,1,26,26,0,26,0,0,1,0,0,0,0,0,stim0,108.01610520294179,-194.00225864487982,Sun Apr 27 2025 14:29:00 GMT+0200 (heure d’été d’Europe centrale),The main experiment item,0.699999988079071,False,C:/Users/rekbi/OneDrive/Bureau,False,mono,False,18,no,#000000,no,no,768,912,1940,1,1,a75f6f75-437c-2915-eb43-01debc9446dd,osweb,0,osweb,,osweb,2.2.1,https://jatos.mindprobe.eu,1,686,1301,0,0,1,0,m,m,q,space,space,1,138,138,2149,327,394,1200,962,1091,1149,space,space,space,2,osweb,0,0,0,0,0,0,1745756946160,train_e1,train_e1,stim_dao1,stim_dao4,1024,2,48000,-16,experiment,,0,even,147463,17266,99,147615,19423,11225,20923,15590,16423,144983,146183,22124,82,11625,10126,19761,Nouvelle expérience,14,62061,32,1024
1,0,42,42,1886,1886,#000000,osweb,osweb,0,osweb,0,0,0,undefined,undefined,undefined,q,m,0,27,1,0,0,0,0,27,0,0,0,0,1,1,27,27,0,27,0,0,1,0,0,0,0,0,stim0,108.01610520294179,-194.00225864487982,Sun Apr 27 2025 14:29:00 GMT+0200 (heure d’été d’Europe centrale),The main experiment item,0.699999988079071,False,C:/Users/rekbi/OneDrive/Bureau,False,mono,False,18,no,#000000,no,no,768,912,1940,1,1,a75f6f75-437c-2915-eb43-01debc9446dd,osweb,0,osweb,,osweb,2.2.1,https://jatos.mindprobe.eu,1,686,1301,0,0,1,0,m,m,q,space,space,1,190,190,2149,327,394,1200,962,1091,1149,space,space,space,2,osweb,0,0,0,0,0,0,1745756946160,train_e1,train_e1,fill_tao1,fill_mao1,1024,2,48000,-16,experiment,,0,even,149981,17266,99,150182,19423,11225,20923,15590,16423,147617,148818,22124,82,11625,10126,19761,Nouvelle expérience,14,62251,33,1024
1,0,44,44,1840,1840,#000000,osweb,osweb,0,osweb,1,1,0,undefined,undefined,undefined,m,m,0,28,1,0,0,0,0,28,0,0,0,0,1,1,28,28,0,28,0,0,1,0,0,0,0,0,stim0,108.01610520294179,-194.00225864487982,Sun Apr 27 2025 14:29:00 GMT+0200 (heure d’été d’Europe centrale),The main experiment item,0.699999988079071,False,C:/Users/rekbi/OneDrive/Bureau,False,mono,False,18,no,#000000,no,no,768,912,1940,1,1,a75f6f75-437c-2915-eb43-01debc9446dd,osweb,0,osweb,,osweb,2.2.1,https://jatos.mindprobe.eu,1,686,1301,0,0,1,0,m,m,q,space,space,1,299,299,2149,327,394,1200,962,1091,1149,space,space,space,2,osweb,0,0,0,0,0,0,1745756946160,train_e1,train_e1,stim_dao3,stim_dao3,1024,2,48000,-16,experiment,,0,even,152265,17266,99,152565,19423,11225,20923,15590,16423,150183,151218,22124,82,11625,10126,19761,Nouvelle expérience,15,62550,34,1024
1,0,43,43,1796,1796,#000000,osweb,osweb,0,osweb,0,0,0,undefined,undefined,undefined,q,m,0,29,1,0,0,0,0,29,0,0,0,0,1,1,29,29,0,29,0,0,1,0,0,0,0,0,stim0,108.01610520294179,-194.00225864487982,Sun Apr 27 2025 14:29:00 GMT+0200 (heure d’été d’Europe centrale),The main experiment item,0.699999988079071,False,C:/Users/rekbi/OneDrive/Bureau,False,mono,False,18,no,#000000,no,no,768,912,1940,1,1,a75f6f75-437c-2915-eb43-01debc9446dd,osweb,0,osweb,,osweb,2.2.1,https://jatos.mindprobe.eu,1,686,1301,0,0,1,0,m,m,q,space,space,1,305,305,2149,327,394,1200,962,1091,1149,space,space,space,2,osweb,0,0,0,0,0,0,1745756946160,train_e1,train_e1,fill_bao3,fill_dao3,1024,2,48000,-16,experiment,,0,even,155069,17266,99,155381,19423,11225,20923,15590,16423,152567,154024,22124,82,11625,10126,19761,Nouvelle expérience,15,62855,35,1024
1,0,44,44,1752,1752,#000000,osweb,osweb,0,osweb,1,1,0,undefined,undefined,undefined,q,m,0,30,1,0,0,0,0,30,0,0,0,0,1,1,30,30,0,30,0,0,1,0,0,0,0,0,stim0,108.01610520294179,-194.00225864487982,Sun Apr 27 2025 14:29:00 GMT+0200 (heure d’été d’Europe centrale),The main experiment item,0.699999988079071,False,C:/Users/rekbi/OneDrive/Bureau,False,mono,False,18,no,#000000,no,no,768,912,1940,1,1,a75f6f75-437c-2915-eb43-01debc9446dd,osweb,0,osweb,,osweb,2.2.1,https://jatos.mindprobe.eu,1,686,1301,0,0,1,0,q,q,q,space,space,1,221,221,2149,327,394,1200,962,1091,1149,space,space,space,2,osweb,0,0,0,0,0,0,1745756946160,train_e1,train_e1,stim_dao2,stim_dao4,1024,2,48000,-16,experiment,,0,even,158461,17266,99,158698,19423,11225,20923,15590,16423,155383,157181,22124,82,11625,10126,19761,Nouvelle expérience,16,63076,36,1024
1,0,43,43,1710,1710,#000000,osweb,osweb,0,osweb,0,0,0,undefined,undefined,undefined,q,m,0,31,1,0,0,0,0,31,0,0,0,0,1,1,31,31,0,31,0,0,1,0,0,0,0,0,stim0,108.01610520294179,-194.00225864487982,Sun Apr 27 2025 14:29:00 GMT+0200 (heure d’été d’Europe centrale),The main experiment item,0.699999988079071,False,C:/Users/rekbi/OneDrive/Bureau,False,mono,False,18,no,#000000,no,no,768,912,1940,1,1,a75f6f75-437c-2915-eb43-01debc9446dd,osweb,0,osweb,,osweb,2.2.1,https://jatos.mindprobe.eu,1,686,1301,0,0,1,0,m,m,q,space,space,1,190,190,2149,327,394,1200,962,1091,1149,space,space,space,2,osweb,0,0,0,0,0,0,1745756946160,train_e1,train_e1,fill_tao2,fill_tiao4,1024,2,48000,-16,experiment,,0,even,161181,17266,99,161381,19423,11225,20923,15590,16423,158699,160061,22124,82,11625,10126,19761,Nouvelle expérience,16,63266,37,1024
1,0,45,45,1681,1681,#000000,osweb,osweb,0,osweb,1,1,0,undefined,undefined,undefined,q,m,0,32,1,0,0,0,0,32,0,0,0,0,1,1,32,32,0,32,0,0,1,0,0,0,0,0,stim0,108.01610520294179,-194.00225864487982,Sun Apr 27 2025 14:29:00 GMT+0200 (heure d’été d’Europe centrale),The main experiment item,0.699999988079071,False,C:/Users/rekbi/OneDrive/Bureau,False,mono,False,18,no,#000000,no,no,768,912,1940,1,1,a75f6f75-437c-2915-eb43-01debc9446dd,osweb,0,osweb,,osweb,2.2.1,https://jatos.mindprobe.eu,1,686,1301,0,0,1,0,q,q,q,space,space,1,613,613,2149,327,394,1200,962,1091,1149,space,space,space,2,osweb,0,0,0,0,0,0,1745756946160,train_e1,train_e1,stim_sheng1,stim_sheng2,1024,2,48000,-16,experiment,,0,even,163933,17266,99,164547,19423,11225,20923,15590,16423,161382,162567,22124,82,11625,10126,19761,Nouvelle expérience,17,63879,38,1024
1,0,46,46,1644,1644,#000000,osweb,osweb,0,osweb,1,1,0,undefined,undefined,undefined,q,m,0,33,1,0,0,0,0,33,0,0,0,0,1,1,33,33,0,33,0,0,1,0,0,0,0,0,stim0,108.01610520294179,-194.00225864487982,Sun Apr 27 2025 14:29:00 GMT+0200 (heure d’été d’Europe centrale),The main experiment item,0.699999988079071,False,C:/Users/rekbi/OneDrive/Bureau,False,mono,False,18,no,#000000,no,no,768,912,1940,1,1,a75f6f75-437c-2915-eb43-01debc9446dd,osweb,0,osweb,,osweb,2.2.1,https://jatos.mindprobe.eu,1,686,1301,0,0,1,0,q,q,q,space,space,1,219,219,2149,327,394,1200,962,1091,1149,space,space,space,2,osweb,0,0,0,0,0,0,1745756946160,train_e1,train_e1,fill_seng1,fill_seng2,1024,2,48000,-16,experiment,,0,even,167229,17266,99,167464,19423,11225,20923,15590,16423,164549,166034,22124,82,11625,10126,19761,Nouvelle expérience,18,64098,39,1024
1,0,45,45,1611,1611,#000000,osweb,osweb,0,osweb,0,0,0,undefined,undefined,undefined,q,m,0,34,1,0,0,0,0,34,0,0,0,0,1,1,34,34,0,34,0,0,1,0,0,0,0,0,stim0,108.01610520294179,-194.00225864487982,Sun Apr 27 2025 14:29:00 GMT+0200 (heure d’été d’Europe centrale),The main experiment item,0.699999988079071,False,C:/Users/rekbi/OneDrive/Bureau,False,mono,False,18,no,#000000,no,no,768,912,1940,1,1,a75f6f75-437c-2915-eb43-01debc9446dd,osweb,0,osweb,,osweb,2.2.1,https://jatos.mindprobe.eu,1,686,1301,0,0,1,0,m,m,q,space,space,1,347,347,2149,327,394,1200,962,1091,1149,space,space,space,2,osweb,0,0,0,0,0,0,1745756946160,train_e1,train_e1,stim_sheng1,stim_sheng4,1024,2,48000,-16,experiment,,0,even,169853,17266,99,170214,19423,11225,20923,15590,16423,167465,168658,22124,82,11625,10126,19761,Nouvelle expérience,18,64445,40,1024
1,0,46,46,1583,1583,#000000,osweb,osweb,0,osweb,1,1,0,undefined,undefined,undefined,q,m,0,35,1,0,0,0,0,35,0,0,0,0,1,1,35,35,0,35,0,0,1,0,0,0,0,0,stim0,108.01610520294179,-194.00225864487982,Sun Apr 27 2025 14:29:00 GMT+0200 (heure d’été d’Europe centrale),The main experiment item,0.699999988079071,False,C:/Users/rekbi/OneDrive/Bureau,False,mono,False,18,no,#000000,no,no,768,912,1940,1,1,a75f6f75-437c-2915-eb43-01debc9446dd,osweb,0,osweb,,osweb,2.2.1,https://jatos.mindprobe.eu,1,686,1301,0,0,1,0,q,q,q,space,space,1,475,475,2149,327,394,1200,962,1091,1149,space,space,space,2,osweb,0,0,0,0,0,0,1745756946160,train_e1,train_e1,fill_sheng1,fill_shong1,1024,2,48000,-16,experiment,,0,even,172562,17266,99,173047,19423,11225,20923,15590,16423,170216,171410,22124,82,11625,10126,19761,Nouvelle expérience,19,64920,41,1024
1,0,48,48,1547,1547,#000000,osweb,osweb,0,osweb,1,1,0,undefined,undefined,undefined,m,m,0,36,1,0,0,0,0,36,0,0,0,0,1,1,36,36,0,36,0,0,1,0,0,0,0,0,stim0,108.01610520294179,-194.00225864487982,Sun Apr 27 2025 14:29:00 GMT+0200 (heure d’été d’Europe centrale),The main experiment item,0.699999988079071,False,C:/Users/rekbi/OneDrive/Bureau,False,mono,False,18,no,#000000,no,no,768,912,1940,1,1,a75f6f75-437c-2915-eb43-01debc9446dd,osweb,0,osweb,,osweb,2.2.1,https://jatos.mindprobe.eu,1,686,1301,0,0,1,0,m,m,q,space,space,1,63,63,2149,327,394,1200,962,1091,1149,space,space,space,2,osweb,0,0,0,0,0,0,1745756946160,train_e1,train_e1,stim_sheng3,stim_sheng3,1024,2,48000,-16,experiment,,0,even,176135,17266,99,176213,19423,11225,20923,15590,16423,173049,174589,22124,82,11625,10126,19761,Nouvelle expérience,20,64983,42,1024
1,0,47,47,1512,1512,#000000,osweb,osweb,0,osweb,0,0,0,undefined,undefined,undefined,q,m,0,37,1,0,0,0,0,37,0,0,0,0,1,1,37,37,0,37,0,0,1,0,0,0,0,0,stim0,108.01610520294179,-194.00225864487982,Sun Apr 27 2025 14:29:00 GMT+0200 (heure d’été d’Europe centrale),The main experiment item,0.699999988079071,False,C:/Users/rekbi/OneDrive/Bureau,False,mono,False,18,no,#000000,no,no,768,912,1940,1,1,a75f6f75-437c-2915-eb43-01debc9446dd,osweb,0,osweb,,osweb,2.2.1,https://jatos.mindprobe.eu,1,686,1301,0,0,1,0,m,m,q,space,space,1,21,21,2149,327,394,1200,962,1091,1149,space,space,space,2,osweb,0,0,0,0,0,0,1745756946160,train_e1,train_e1,fill_seng1,fill_song1,1024,2,48000,-16,experiment,,0,even,178781,17266,99,178813,19423,11225,20923,15590,16423,176215,177704,22124,82,11625,10126,19761,Nouvelle expérience,20,65004,43,1024
1,0,48,48,1478,1478,#000000,osweb,osweb,0,osweb,1,1,0,undefined,undefined,undefined,m,m,0,38,1,0,0,0,0,38,0,0,0,0,1,1,38,38,0,38,0,0,1,0,0,0,0,0,stim0,108.01610520294179,-194.00225864487982,Sun Apr 27 2025 14:29:00 GMT+0200 (heure d’été d’Europe centrale),The main experiment item,0.699999988079071,False,C:/Users/rekbi/OneDrive/Bureau,False,mono,False,18,no,#000000,no,no,768,912,1940,1,1,a75f6f75-437c-2915-eb43-01debc9446dd,osweb,0,osweb,,osweb,2.2.1,https://jatos.mindprobe.eu,1,686,1301,0,0,1,0,m,m,q,space,space,1,43,43,2149,327,394,1200,962,1091,1149,space,space,space,2,osweb,0,0,0,0,0,0,1745756946160,train_e1,train_e1,stim_sheng4,stim_sheng4,1024,2,48000,-16,experiment,,0,even,181202,17266,99,181246,19423,11225,20923,15590,16423,178815,180008,22124,82,11625,10126,19761,Nouvelle expérience,21,65047,44,1024
1,0,49,49,1458,1458,#000000,osweb,osweb,0,osweb,1,1,0,undefined,undefined,undefined,m,m,0,39,1,0,0,0,0,39,0,0,0,0,1,1,39,39,0,39,0,0,1,0,0,0,0,0,stim0,108.01610520294179,-194.00225864487982,Sun Apr 27 2025 14:29:00 GMT+0200 (heure d’été d’Europe centrale),The main experiment item,0.699999988079071,False,C:/Users/rekbi/OneDrive/Bureau,False,mono,False,18,no,#000000,no,no,768,912,1940,1,1,a75f6f75-437c-2915-eb43-01debc9446dd,osweb,0,osweb,,osweb,2.2.1,https://jatos.mindprobe.eu,1,686,1301,0,0,1,0,m,m,q,space,space,1,564,564,2149,327,394,1200,962,1091,1149,space,space,space,2,osweb,0,0,0,0,0,0,1745756946160,train_e1,train_e1,fill_seng4,fill_seng4,1024,2,48000,-16,experiment,,0,even,185021,17266,99,185596,19423,11225,20923,15590,16423,181248,183133,22124,82,11625,10126,19761,Nouvelle expérience,22,65611,45,1024
