PERSISTENT,TEMPORARY,acc,accuracy,average_response_time,avg_rt,background,canvas_backend,clock_backend,closed,color_backend,correct,correct_correct_response,correct_correct_response_training,correct_new_1_keyboard_response,correct_new_keyboard_response,correct_new_mouse_response,correct_response,correct_response_train,count_Consent_form,count_correct_response,count_correct_response_training,count_ecouteur_form,count_experiment,count_experiment_loop,count_getting_started,count_logger_exp,count_new_1_keyboard_response,count_new_keyboard_response,count_new_mouse_response,count_osweb,count_play_sampler1,count_play_sampler2,count_play_sound1,count_play_sound2,count_redirect_to_limesurvey,count_stim_fill_sequence,count_study_finished,count_training_loop,count_training_seq,count_training_sketchpad,count_welcome_exp_page,count_welome,credentialless,crossOriginIsolated,cursor_roi,cursor_x,cursor_y,datetime,description,devicePixelRatio,disable_garbage_collection,experiment_path,font_bold,font_family,font_italic,font_size,font_underline,foreground,form_clicks,fullscreen,height,innerHeight,innerWidth,isBrowser,isSecureContext,jatos_uuid,keyboard_backend,length,mouse_backend,name,opensesame_codename,opensesame_version,origin,originAgentCluster,outerHeight,outerWidth,pageXOffset,pageYOffset,penwidth,repeat_cycle,response,response_correct_response,response_correct_response_training,response_new_1_keyboard_response,response_new_keyboard_response,response_new_mouse_response,response_time,response_time_correct_response,response_time_correct_response_training,response_time_new_1_keyboard_response,response_time_new_keyboard_response,response_time_new_mouse_response,response_time_training_sketchpad,response_time_welcome_exp_page,response_time_welome,response_training_sketchpad,response_welcome_exp_page,response_welome,round_decimals,sampler_backend,screenLeft,screenTop,screenX,screenY,scrollX,scrollY,sessionid,sound1,sound2,sound_1,sound_2,sound_buf_size,sound_channels,sound_freq,sound_sample_size,start,status,subject_nr,subject_parity,time_correct_response,time_correct_response_training,time_experiment_loop,time_logger_exp,time_new_1_keyboard_response,time_new_keyboard_response,time_new_mouse_response,time_play_sampler1,time_play_sampler2,time_play_sound1,time_play_sound2,time_redirect_to_limesurvey,time_training_loop,time_training_sketchpad,time_welcome_exp_page,time_welome,title,total_correct,total_response_time,total_responses,width
1,0,50,50,6940,6940,#000000,osweb,osweb,0,osweb,1,1,1,undefined,undefined,undefined,q,m,0,0,1,0,0,0,0,0,0,0,0,0,1,1,0,0,0,0,0,0,1,0,0,0,0,0,,400.4804094703942,12.81892965787714,Thu Apr 24 2025 23:26:07 GMT+0200 (heure d’été d’Europe centrale),The main experiment item,1.5,False,C:/Users/rekbi/OneDrive/Bureau,False,mono,False,18,no,#000000,no,no,768,559,1280,1,1,a75f6f75-437c-2915-eb43-01debc9446dd,osweb,0,osweb,,osweb,2.2.1,https://jatos.mindprobe.eu,1,680,1280,0,2,1,0,q,q,m,space,space,1,4014,4014,2632,6703,1868,23924,15484,43294,20602,space,space,space,2,osweb,0,0,0,0,0,2,1745530024017,train_e1,train_e1,stim_ma1,stim_ma4,1024,2,48000,-16,experiment,,0,even,134031,77524,144,138048,80167,53764,107491,75852,76684,131503,133011,131418,120,55646,10461,86884,Nouvelle expérience,3,41642,6,1024
1,0,57,57,6004,6004,#000000,osweb,osweb,0,osweb,1,1,1,undefined,undefined,undefined,q,m,0,1,1,0,0,0,0,1,0,0,0,0,1,1,1,1,0,1,0,0,1,0,0,0,0,0,,400.4804094703942,12.81892965787714,Thu Apr 24 2025 23:26:07 GMT+0200 (heure d’été d’Europe centrale),The main experiment item,1.5,False,C:/Users/rekbi/OneDrive/Bureau,False,mono,False,18,no,#000000,no,no,768,559,1280,1,1,a75f6f75-437c-2915-eb43-01debc9446dd,osweb,0,osweb,,osweb,2.2.1,https://jatos.mindprobe.eu,1,680,1280,0,2,1,0,q,q,m,space,space,1,386,386,2632,6703,1868,23924,15484,43294,20602,space,space,space,2,osweb,0,0,0,0,0,2,1745530024017,train_e1,train_e1,fill_tao2,fill_tao3,1024,2,48000,-16,experiment,,0,even,140936,77524,144,141330,80167,53764,107491,75852,76684,138069,139448,131418,120,55646,10461,86884,Nouvelle expérience,4,42028,7,1024
1,0,63,63,5301,5301,#000000,osweb,osweb,0,osweb,1,1,1,undefined,undefined,undefined,q,m,0,2,1,0,0,0,0,2,0,0,0,0,1,1,2,2,0,2,0,0,1,0,0,0,0,0,,400.4804094703942,12.81892965787714,Thu Apr 24 2025 23:26:07 GMT+0200 (heure d’été d’Europe centrale),The main experiment item,1.5,False,C:/Users/rekbi/OneDrive/Bureau,False,mono,False,18,no,#000000,no,no,768,559,1280,1,1,a75f6f75-437c-2915-eb43-01debc9446dd,osweb,0,osweb,,osweb,2.2.1,https://jatos.mindprobe.eu,1,680,1280,0,2,1,0,q,q,m,space,space,1,378,378,2632,6703,1868,23924,15484,43294,20602,space,space,space,2,osweb,0,0,0,0,0,2,1745530024017,train_e1,train_e1,stim_dao1,stim_dao4,1024,2,48000,-16,experiment,,0,even,143811,77524,144,144195,80167,53764,107491,75852,76684,141334,142531,131418,120,55646,10461,86884,Nouvelle expérience,5,42406,8,1024
1,0,67,67,4784,4784,#000000,osweb,osweb,0,osweb,1,1,1,undefined,undefined,undefined,q,m,0,3,1,0,0,0,0,3,0,0,0,0,1,1,3,3,0,3,0,0,1,0,0,0,0,0,,400.4804094703942,12.81892965787714,Thu Apr 24 2025 23:26:07 GMT+0200 (heure d’été d’Europe centrale),The main experiment item,1.5,False,C:/Users/rekbi/OneDrive/Bureau,False,mono,False,18,no,#000000,no,no,768,559,1280,1,1,a75f6f75-437c-2915-eb43-01debc9446dd,osweb,0,osweb,,osweb,2.2.1,https://jatos.mindprobe.eu,1,680,1280,0,2,1,0,q,q,m,space,space,1,651,651,2632,6703,1868,23924,15484,43294,20602,space,space,space,2,osweb,0,0,0,0,0,2,1745530024017,train_e1,train_e1,fill_pan1,fill_pan3,1024,2,48000,-16,experiment,,0,even,146521,77524,144,147178,80167,53764,107491,75852,76684,144199,145131,131418,120,55646,10461,86884,Nouvelle expérience,6,43057,9,1024
1,0,70,70,4328,4328,#000000,osweb,osweb,0,osweb,1,1,1,undefined,undefined,undefined,q,m,0,4,1,0,0,0,0,4,0,0,0,0,1,1,4,4,0,4,0,0,1,0,0,0,0,0,,400.4804094703942,12.81892965787714,Thu Apr 24 2025 23:26:07 GMT+0200 (heure d’été d’Europe centrale),The main experiment item,1.5,False,C:/Users/rekbi/OneDrive/Bureau,False,mono,False,18,no,#000000,no,no,768,559,1280,1,1,a75f6f75-437c-2915-eb43-01debc9446dd,osweb,0,osweb,,osweb,2.2.1,https://jatos.mindprobe.eu,1,680,1280,0,2,1,0,q,q,m,space,space,1,227,227,2632,6703,1868,23924,15484,43294,20602,space,space,space,2,osweb,0,0,0,0,0,2,1745530024017,train_e1,train_e1,stim_dao2,stim_dao4,1024,2,48000,-16,experiment,,0,even,150261,77524,144,150525,80167,53764,107491,75852,76684,147181,148987,131418,120,55646,10461,86884,Nouvelle expérience,7,43284,10,1024
1,0,64,64,4028,4028,#000000,osweb,osweb,0,osweb,0,0,1,undefined,undefined,undefined,q,m,0,5,1,0,0,0,0,5,0,0,0,0,1,1,5,5,0,5,0,0,1,0,0,0,0,0,,400.4804094703942,12.81892965787714,Thu Apr 24 2025 23:26:07 GMT+0200 (heure d’été d’Europe centrale),The main experiment item,1.5,False,C:/Users/rekbi/OneDrive/Bureau,False,mono,False,18,no,#000000,no,no,768,559,1280,1,1,a75f6f75-437c-2915-eb43-01debc9446dd,osweb,0,osweb,,osweb,2.2.1,https://jatos.mindprobe.eu,1,680,1280,0,2,1,0,m,m,m,space,space,1,1021,1021,2632,6703,1868,23924,15484,43294,20602,space,space,space,2,osweb,0,0,0,0,0,2,1745530024017,train_e1,train_e1,fill_bao3,fill_dao3,1024,2,48000,-16,experiment,,0,even,153041,77524,144,154076,80167,53764,107491,75852,76684,150528,151992,131418,120,55646,10461,86884,Nouvelle expérience,7,44305,11,1024
1,0,67,67,3731,3731,#000000,osweb,osweb,0,osweb,1,1,1,undefined,undefined,undefined,q,m,0,6,1,0,0,0,0,6,0,0,0,0,1,1,6,6,0,6,0,0,1,0,0,0,0,0,,400.4804094703942,12.81892965787714,Thu Apr 24 2025 23:26:07 GMT+0200 (heure d’été d’Europe centrale),The main experiment item,1.5,False,C:/Users/rekbi/OneDrive/Bureau,False,mono,False,18,no,#000000,no,no,768,559,1280,1,1,a75f6f75-437c-2915-eb43-01debc9446dd,osweb,0,osweb,,osweb,2.2.1,https://jatos.mindprobe.eu,1,680,1280,0,2,1,0,q,q,m,space,space,1,468,468,2632,6703,1868,23924,15484,43294,20602,space,space,space,2,osweb,0,0,0,0,0,2,1745530024017,train_e1,train_e1,fill_mi1,fill_bi1,1024,2,48000,-16,experiment,,0,even,156501,77524,144,156975,80167,53764,107491,75852,76684,154079,155391,131418,120,55646,10461,86884,Nouvelle expérience,8,44773,12,1024
1,0,62,62,3504,3504,#000000,osweb,osweb,0,osweb,0,0,1,undefined,undefined,undefined,q,m,0,7,1,0,0,0,0,7,0,0,0,0,1,1,7,7,0,7,0,0,1,0,0,0,0,0,,400.4804094703942,12.81892965787714,Thu Apr 24 2025 23:26:07 GMT+0200 (heure d’été d’Europe centrale),The main experiment item,1.5,False,C:/Users/rekbi/OneDrive/Bureau,False,mono,False,18,no,#000000,no,no,768,559,1280,1,1,a75f6f75-437c-2915-eb43-01debc9446dd,osweb,0,osweb,,osweb,2.2.1,https://jatos.mindprobe.eu,1,680,1280,0,2,1,0,m,m,m,space,space,1,781,781,2632,6703,1868,23924,15484,43294,20602,space,space,space,2,osweb,0,0,0,0,0,2,1745530024017,train_e1,train_e1,stim_dao2,stim_dao3,1024,2,48000,-16,experiment,,0,even,159822,77524,144,160607,80167,53764,107491,75852,76684,156978,158771,131418,120,55646,10461,86884,Nouvelle expérience,8,45554,13,1024
1,0,64,64,3646,3646,#000000,osweb,osweb,0,osweb,1,1,1,undefined,undefined,undefined,q,m,0,8,1,0,0,0,0,8,0,0,0,0,1,1,8,8,0,8,0,0,1,0,0,0,0,0,,400.4804094703942,12.81892965787714,Thu Apr 24 2025 23:26:07 GMT+0200 (heure d’été d’Europe centrale),The main experiment item,1.5,False,C:/Users/rekbi/OneDrive/Bureau,False,mono,False,18,no,#000000,no,no,768,559,1280,1,1,a75f6f75-437c-2915-eb43-01debc9446dd,osweb,0,osweb,,osweb,2.2.1,https://jatos.mindprobe.eu,1,680,1280,0,2,1,0,q,q,m,space,space,1,5491,5491,2632,6703,1868,23924,15484,43294,20602,space,space,space,2,osweb,0,0,0,0,0,2,1745530024017,train_e1,train_e1,fill_qi2,fill_xi2,1024,2,48000,-16,experiment,,0,even,163161,77524,144,168653,80167,53764,107491,75852,76684,160608,162051,131418,120,55646,10461,86884,Nouvelle expérience,9,51045,14,1024
1,0,67,67,3442,3442,#000000,osweb,osweb,0,osweb,1,1,1,undefined,undefined,undefined,q,m,0,9,1,0,0,0,0,9,0,0,0,0,1,1,9,9,0,9,0,0,1,0,0,0,0,0,,400.4804094703942,12.81892965787714,Thu Apr 24 2025 23:26:07 GMT+0200 (heure d’été d’Europe centrale),The main experiment item,1.5,False,C:/Users/rekbi/OneDrive/Bureau,False,mono,False,18,no,#000000,no,no,768,559,1280,1,1,a75f6f75-437c-2915-eb43-01debc9446dd,osweb,0,osweb,,osweb,2.2.1,https://jatos.mindprobe.eu,1,680,1280,0,2,1,0,q,q,m,space,space,1,583,583,2632,6703,1868,23924,15484,43294,20602,space,space,space,2,osweb,0,0,0,0,0,2,1745530024017,train_e1,train_e1,stim_ma2,stim_ma4,1024,2,48000,-16,experiment,,0,even,170684,77524,144,171270,80167,53764,107491,75852,76684,168657,169659,131418,120,55646,10461,86884,Nouvelle expérience,10,51628,15,1024
1,0,69,69,3243,3243,#000000,osweb,osweb,0,osweb,1,1,1,undefined,undefined,undefined,m,m,0,10,1,0,0,0,0,10,0,0,0,0,1,1,10,10,0,10,0,0,1,0,0,0,0,0,,400.4804094703942,12.81892965787714,Thu Apr 24 2025 23:26:07 GMT+0200 (heure d’été d’Europe centrale),The main experiment item,1.5,False,C:/Users/rekbi/OneDrive/Bureau,False,mono,False,18,no,#000000,no,no,768,559,1280,1,1,a75f6f75-437c-2915-eb43-01debc9446dd,osweb,0,osweb,,osweb,2.2.1,https://jatos.mindprobe.eu,1,680,1280,0,2,1,0,m,m,m,space,space,1,258,258,2632,6703,1868,23924,15484,43294,20602,space,space,space,2,osweb,0,0,0,0,0,2,1745530024017,train_e1,train_e1,stim_yi1,stim_yi1,1024,2,48000,-16,experiment,,0,even,173132,77524,144,173403,80167,53764,107491,75852,76684,171274,172202,131418,120,55646,10461,86884,Nouvelle expérience,11,51886,16,1024
1,0,71,71,3080,3080,#000000,osweb,osweb,0,osweb,1,1,1,undefined,undefined,undefined,m,m,0,11,1,0,0,0,0,11,0,0,0,0,1,1,11,11,0,11,0,0,1,0,0,0,0,0,,400.4804094703942,12.81892965787714,Thu Apr 24 2025 23:26:07 GMT+0200 (heure d’été d’Europe centrale),The main experiment item,1.5,False,C:/Users/rekbi/OneDrive/Bureau,False,mono,False,18,no,#000000,no,no,768,559,1280,1,1,a75f6f75-437c-2915-eb43-01debc9446dd,osweb,0,osweb,,osweb,2.2.1,https://jatos.mindprobe.eu,1,680,1280,0,2,1,0,m,m,m,space,space,1,473,473,2632,6703,1868,23924,15484,43294,20602,space,space,space,2,osweb,0,0,0,0,0,2,1745530024017,train_e1,train_e1,fill_pan2,fill_pan2,1024,2,48000,-16,experiment,,0,even,176092,77524,144,176569,80167,53764,107491,75852,76684,173406,174752,131418,120,55646,10461,86884,Nouvelle expérience,12,52359,17,1024
1,0,72,72,2927,2927,#000000,osweb,osweb,0,osweb,1,1,1,undefined,undefined,undefined,m,m,0,12,1,0,0,0,0,12,0,0,0,0,1,1,12,12,0,12,0,0,1,0,0,0,0,0,,400.4804094703942,12.81892965787714,Thu Apr 24 2025 23:26:07 GMT+0200 (heure d’été d’Europe centrale),The main experiment item,1.5,False,C:/Users/rekbi/OneDrive/Bureau,False,mono,False,18,no,#000000,no,no,768,559,1280,1,1,a75f6f75-437c-2915-eb43-01debc9446dd,osweb,0,osweb,,osweb,2.2.1,https://jatos.mindprobe.eu,1,680,1280,0,2,1,0,m,m,m,space,space,1,329,329,2632,6703,1868,23924,15484,43294,20602,space,space,space,2,osweb,0,0,0,0,0,2,1745530024017,train_e1,train_e1,stim_ban3,stim_ban3,1024,2,48000,-16,experiment,,0,even,179492,77524,144,179834,80167,53764,107491,75852,76684,176572,178032,131418,120,55646,10461,86884,Nouvelle expérience,13,52688,18,1024
1,0,74,74,2809,2809,#000000,osweb,osweb,0,osweb,1,1,1,undefined,undefined,undefined,q,m,0,13,1,0,0,0,0,13,0,0,0,0,1,1,13,13,0,13,0,0,1,0,0,0,0,0,,400.4804094703942,12.81892965787714,Thu Apr 24 2025 23:26:07 GMT+0200 (heure d’été d’Europe centrale),The main experiment item,1.5,False,C:/Users/rekbi/OneDrive/Bureau,False,mono,False,18,no,#000000,no,no,768,559,1280,1,1,a75f6f75-437c-2915-eb43-01debc9446dd,osweb,0,osweb,,osweb,2.2.1,https://jatos.mindprobe.eu,1,680,1280,0,2,1,0,q,q,m,space,space,1,677,677,2632,6703,1868,23924,15484,43294,20602,space,space,space,2,osweb,0,0,0,0,0,2,1745530024017,train_e1,train_e1,stim_yi2,stim_yi1,1024,2,48000,-16,experiment,,0,even,181832,77524,144,182517,80167,53764,107491,75852,76684,179838,180892,131418,120,55646,10461,86884,Nouvelle expérience,14,53365,19,1024
1,0,75,75,2726,2726,#000000,osweb,osweb,0,osweb,1,1,1,undefined,undefined,undefined,q,m,0,14,1,0,0,0,0,14,0,0,0,0,1,1,14,14,0,14,0,0,1,0,0,0,0,0,,400.4804094703942,12.81892965787714,Thu Apr 24 2025 23:26:07 GMT+0200 (heure d’été d’Europe centrale),The main experiment item,1.5,False,C:/Users/rekbi/OneDrive/Bureau,False,mono,False,18,no,#000000,no,no,768,559,1280,1,1,a75f6f75-437c-2915-eb43-01debc9446dd,osweb,0,osweb,,osweb,2.2.1,https://jatos.mindprobe.eu,1,680,1280,0,2,1,0,q,q,m,space,space,1,1163,1163,2632,6703,1868,23924,15484,43294,20602,space,space,space,2,osweb,0,0,0,0,0,2,1745530024017,train_e1,train_e1,stim_ban2,stim_ban4,1024,2,48000,-16,experiment,,0,even,184642,77524,144,185816,80167,53764,107491,75852,76684,182520,183682,131418,120,55646,10461,86884,Nouvelle expérience,15,54528,20,1024
1,0,71,71,2678,2678,#000000,osweb,osweb,0,osweb,0,0,1,undefined,undefined,undefined,q,m,0,15,1,0,0,0,0,15,0,0,0,0,1,1,15,15,0,15,0,0,1,0,0,0,0,0,,400.4804094703942,12.81892965787714,Thu Apr 24 2025 23:26:07 GMT+0200 (heure d’été d’Europe centrale),The main experiment item,1.5,False,C:/Users/rekbi/OneDrive/Bureau,False,mono,False,18,no,#000000,no,no,768,559,1280,1,1,a75f6f75-437c-2915-eb43-01debc9446dd,osweb,0,osweb,,osweb,2.2.1,https://jatos.mindprobe.eu,1,680,1280,0,2,1,0,m,m,m,space,space,1,1705,1705,2632,6703,1868,23924,15484,43294,20602,space,space,space,2,osweb,0,0,0,0,0,2,1745530024017,train_e1,train_e1,fill_sheng1,fill_shong1,1024,2,48000,-16,experiment,,0,even,188162,77524,144,189881,80167,53764,107491,75852,76684,185819,187002,131418,120,55646,10461,86884,Nouvelle expérience,15,56233,21,1024
1,0,73,73,2562,2562,#000000,osweb,osweb,0,osweb,1,1,1,undefined,undefined,undefined,q,m,0,16,1,0,0,0,0,16,0,0,0,0,1,1,16,16,0,16,0,0,1,0,0,0,0,0,,400.4804094703942,12.81892965787714,Thu Apr 24 2025 23:26:07 GMT+0200 (heure d’été d’Europe centrale),The main experiment item,1.5,False,C:/Users/rekbi/OneDrive/Bureau,False,mono,False,18,no,#000000,no,no,768,559,1280,1,1,a75f6f75-437c-2915-eb43-01debc9446dd,osweb,0,osweb,,osweb,2.2.1,https://jatos.mindprobe.eu,1,680,1280,0,2,1,0,q,q,m,space,space,1,124,124,2632,6703,1868,23924,15484,43294,20602,space,space,space,2,osweb,0,0,0,0,0,2,1745530024017,train_e1,train_e1,fill_pan2,fill_pang2,1024,2,48000,-16,experiment,,0,even,192612,77524,144,192747,80167,53764,107491,75852,76684,189883,191232,131418,120,55646,10461,86884,Nouvelle expérience,16,56357,22,1024
1,0,74,74,2514,2514,#000000,osweb,osweb,0,osweb,1,1,1,undefined,undefined,undefined,q,m,0,17,1,0,0,0,0,17,0,0,0,0,1,1,17,17,0,17,0,0,1,0,0,0,0,0,,400.4804094703942,12.81892965787714,Thu Apr 24 2025 23:26:07 GMT+0200 (heure d’été d’Europe centrale),The main experiment item,1.5,False,C:/Users/rekbi/OneDrive/Bureau,False,mono,False,18,no,#000000,no,no,768,559,1280,1,1,a75f6f75-437c-2915-eb43-01debc9446dd,osweb,0,osweb,,osweb,2.2.1,https://jatos.mindprobe.eu,1,680,1280,0,2,1,0,q,q,m,space,space,1,1457,1457,2632,6703,1868,23924,15484,43294,20602,space,space,space,2,osweb,0,0,0,0,0,2,1745530024017,train_e1,train_e1,stim_sheng1,stim_sheng4,1024,2,48000,-16,experiment,,0,even,195142,77524,144,196612,80167,53764,107491,75852,76684,192750,193947,131418,120,55646,10461,86884,Nouvelle expérience,17,57814,23,1024
1,0,75,75,2439,2439,#000000,osweb,osweb,0,osweb,1,1,1,undefined,undefined,undefined,q,m,0,18,1,0,0,0,0,18,0,0,0,0,1,1,18,18,0,18,0,0,1,0,0,0,0,0,,400.4804094703942,12.81892965787714,Thu Apr 24 2025 23:26:07 GMT+0200 (heure d’été d’Europe centrale),The main experiment item,1.5,False,C:/Users/rekbi/OneDrive/Bureau,False,mono,False,18,no,#000000,no,no,768,559,1280,1,1,a75f6f75-437c-2915-eb43-01debc9446dd,osweb,0,osweb,,osweb,2.2.1,https://jatos.mindprobe.eu,1,680,1280,0,2,1,0,q,q,m,space,space,1,712,712,2632,6703,1868,23924,15484,43294,20602,space,space,space,2,osweb,0,0,0,0,0,2,1745530024017,train_e1,train_e1,stim_yi2,stim_yi3,1024,2,48000,-16,experiment,,0,even,199333,77524,144,200046,80167,53764,107491,75852,76684,196615,197672,131418,120,55646,10461,86884,Nouvelle expérience,18,58526,24,1024
1,0,76,76,2412,2412,#000000,osweb,osweb,0,osweb,1,1,1,undefined,undefined,undefined,q,m,0,19,1,0,0,0,0,19,0,0,0,0,1,1,19,19,0,19,0,0,1,0,0,0,0,0,,400.4804094703942,12.81892965787714,Thu Apr 24 2025 23:26:07 GMT+0200 (heure d’été d’Europe centrale),The main experiment item,1.5,False,C:/Users/rekbi/OneDrive/Bureau,False,mono,False,18,no,#000000,no,no,768,559,1280,1,1,a75f6f75-437c-2915-eb43-01debc9446dd,osweb,0,osweb,,osweb,2.2.1,https://jatos.mindprobe.eu,1,680,1280,0,2,1,0,q,q,m,space,space,1,1776,1776,2632,6703,1868,23924,15484,43294,20602,space,space,space,2,osweb,0,0,0,0,0,2,1745530024017,train_e1,train_e1,fill_pa4,fill_ba4,1024,2,48000,-16,experiment,,0,even,202455,77524,144,204243,80167,53764,107491,75852,76684,200049,201193,131418,120,55646,10461,86884,Nouvelle expérience,19,60302,25,1024
1,0,77,77,2323,2323,#000000,osweb,osweb,0,osweb,1,1,1,undefined,undefined,undefined,q,m,0,20,1,0,0,0,0,20,0,0,0,0,1,1,20,20,0,20,0,0,1,0,0,0,0,0,,400.4804094703942,12.81892965787714,Thu Apr 24 2025 23:26:07 GMT+0200 (heure d’été d’Europe centrale),The main experiment item,1.5,False,C:/Users/rekbi/OneDrive/Bureau,False,mono,False,18,no,#000000,no,no,768,559,1280,1,1,a75f6f75-437c-2915-eb43-01debc9446dd,osweb,0,osweb,,osweb,2.2.1,https://jatos.mindprobe.eu,1,680,1280,0,2,1,0,q,q,m,space,space,1,101,101,2632,6703,1868,23924,15484,43294,20602,space,space,space,2,osweb,0,0,0,0,0,2,1745530024017,train_e1,train_e1,fill_seng1,fill_seng2,1024,2,48000,-16,experiment,,0,even,206933,77524,144,207042,80167,53764,107491,75852,76684,204246,205733,131418,120,55646,10461,86884,Nouvelle expérience,20,60403,26,1024
1,0,78,78,2245,2245,#000000,osweb,osweb,0,osweb,1,1,1,undefined,undefined,undefined,q,m,0,21,1,0,0,0,0,21,0,0,0,0,1,1,21,21,0,21,0,0,1,0,0,0,0,0,,400.4804094703942,12.81892965787714,Thu Apr 24 2025 23:26:07 GMT+0200 (heure d’été d’Europe centrale),The main experiment item,1.5,False,C:/Users/rekbi/OneDrive/Bureau,False,mono,False,18,no,#000000,no,no,768,559,1280,1,1,a75f6f75-437c-2915-eb43-01debc9446dd,osweb,0,osweb,,osweb,2.2.1,https://jatos.mindprobe.eu,1,680,1280,0,2,1,0,q,q,m,space,space,1,224,224,2632,6703,1868,23924,15484,43294,20602,space,space,space,2,osweb,0,0,0,0,0,2,1745530024017,train_e1,train_e1,stim_sheng1,stim_sheng2,1024,2,48000,-16,experiment,,0,even,209593,77524,144,209825,80167,53764,107491,75852,76684,207046,208233,131418,120,55646,10461,86884,Nouvelle expérience,21,60627,27,1024
1,0,79,79,2182,2182,#000000,osweb,osweb,0,osweb,1,1,1,undefined,undefined,undefined,q,m,0,22,1,0,0,0,0,22,0,0,0,0,1,1,22,22,0,22,0,0,1,0,0,0,0,0,,400.4804094703942,12.81892965787714,Thu Apr 24 2025 23:26:07 GMT+0200 (heure d’été d’Europe centrale),The main experiment item,1.5,False,C:/Users/rekbi/OneDrive/Bureau,False,mono,False,18,no,#000000,no,no,768,559,1280,1,1,a75f6f75-437c-2915-eb43-01debc9446dd,osweb,0,osweb,,osweb,2.2.1,https://jatos.mindprobe.eu,1,680,1280,0,2,1,0,q,q,m,space,space,1,459,459,2632,6703,1868,23924,15484,43294,20602,space,space,space,2,osweb,0,0,0,0,0,2,1745530024017,train_e1,train_e1,fill_la1,fill_ma1,1024,2,48000,-16,experiment,,0,even,212323,77524,144,212791,80167,53764,107491,75852,76684,209828,211113,131418,120,55646,10461,86884,Nouvelle expérience,22,61086,28,1024
1,0,79,79,2138,2138,#000000,osweb,osweb,0,osweb,1,1,1,undefined,undefined,undefined,m,m,0,23,1,0,0,0,0,23,0,0,0,0,1,1,23,23,0,23,0,0,1,0,0,0,0,0,,400.4804094703942,12.81892965787714,Thu Apr 24 2025 23:26:07 GMT+0200 (heure d’été d’Europe centrale),The main experiment item,1.5,False,C:/Users/rekbi/OneDrive/Bureau,False,mono,False,18,no,#000000,no,no,768,559,1280,1,1,a75f6f75-437c-2915-eb43-01debc9446dd,osweb,0,osweb,,osweb,2.2.1,https://jatos.mindprobe.eu,1,680,1280,0,2,1,0,m,m,m,space,space,1,926,926,2632,6703,1868,23924,15484,43294,20602,space,space,space,2,osweb,0,0,0,0,0,2,1745530024017,train_e1,train_e1,stim_sheng4,stim_sheng4,1024,2,48000,-16,experiment,,0,even,215193,77524,144,216123,80167,53764,107491,75852,76684,212794,213993,131418,120,55646,10461,86884,Nouvelle expérience,23,62012,29,1024
1,0,80,80,2077,2077,#000000,osweb,osweb,0,osweb,1,1,1,undefined,undefined,undefined,q,m,0,24,1,0,0,0,0,24,0,0,0,0,1,1,24,24,0,24,0,0,1,0,0,0,0,0,,400.4804094703942,12.81892965787714,Thu Apr 24 2025 23:26:07 GMT+0200 (heure d’été d’Europe centrale),The main experiment item,1.5,False,C:/Users/rekbi/OneDrive/Bureau,False,mono,False,18,no,#000000,no,no,768,559,1280,1,1,a75f6f75-437c-2915-eb43-01debc9446dd,osweb,0,osweb,,osweb,2.2.1,https://jatos.mindprobe.eu,1,680,1280,0,2,1,0,q,q,m,space,space,1,304,304,2632,6703,1868,23924,15484,43294,20602,space,space,space,2,osweb,0,0,0,0,0,2,1745530024017,train_e1,train_e1,fill_li1,fill_la1,1024,2,48000,-16,experiment,,0,even,218953,77524,144,219272,80167,53764,107491,75852,76684,216126,217653,131418,120,55646,10461,86884,Nouvelle expérience,24,62316,30,1024
1,0,81,81,2042,2042,#000000,osweb,osweb,0,osweb,1,1,1,undefined,undefined,undefined,m,m,0,25,1,0,0,0,0,25,0,0,0,0,1,1,25,25,0,25,0,0,1,0,0,0,0,0,,400.4804094703942,12.81892965787714,Thu Apr 24 2025 23:26:07 GMT+0200 (heure d’été d’Europe centrale),The main experiment item,1.5,False,C:/Users/rekbi/OneDrive/Bureau,False,mono,False,18,no,#000000,no,no,768,559,1280,1,1,a75f6f75-437c-2915-eb43-01debc9446dd,osweb,0,osweb,,osweb,2.2.1,https://jatos.mindprobe.eu,1,680,1280,0,2,1,0,m,m,m,space,space,1,1000,1000,2632,6703,1868,23924,15484,43294,20602,space,space,space,2,osweb,0,0,0,0,0,2,1745530024017,train_e1,train_e1,stim_dao3,stim_dao3,1024,2,48000,-16,experiment,,0,even,221373,77524,144,222387,80167,53764,107491,75852,76684,219275,220323,131418,120,55646,10461,86884,Nouvelle expérience,25,63316,31,1024
1,0,81,81,2147,2147,#000000,osweb,osweb,0,osweb,1,1,1,undefined,undefined,undefined,m,m,0,26,1,0,0,0,0,26,0,0,0,0,1,1,26,26,0,26,0,0,1,0,0,0,0,0,,400.4804094703942,12.81892965787714,Thu Apr 24 2025 23:26:07 GMT+0200 (heure d’été d’Europe centrale),The main experiment item,1.5,False,C:/Users/rekbi/OneDrive/Bureau,False,mono,False,18,no,#000000,no,no,768,559,1280,1,1,a75f6f75-437c-2915-eb43-01debc9446dd,osweb,0,osweb,,osweb,2.2.1,https://jatos.mindprobe.eu,1,680,1280,0,2,1,0,m,m,m,space,space,1,5378,5378,2632,6703,1868,23924,15484,43294,20602,space,space,space,2,osweb,0,0,0,0,0,2,1745530024017,train_e1,train_e1,stim_yi3,stim_yi3,1024,2,48000,-16,experiment,,0,even,225713,77524,144,231101,80167,53764,107491,75852,76684,222391,224043,131418,120,55646,10461,86884,Nouvelle expérience,26,68694,32,1024
1,0,82,82,2083,2083,#000000,osweb,osweb,0,osweb,1,1,1,undefined,undefined,undefined,m,m,0,27,1,0,0,0,0,27,0,0,0,0,1,1,27,27,0,27,0,0,1,0,0,0,0,0,,400.4804094703942,12.81892965787714,Thu Apr 24 2025 23:26:07 GMT+0200 (heure d’été d’Europe centrale),The main experiment item,1.5,False,C:/Users/rekbi/OneDrive/Bureau,False,mono,False,18,no,#000000,no,no,768,559,1280,1,1,a75f6f75-437c-2915-eb43-01debc9446dd,osweb,0,osweb,,osweb,2.2.1,https://jatos.mindprobe.eu,1,680,1280,0,2,1,0,m,m,m,space,space,1,60,60,2632,6703,1868,23924,15484,43294,20602,space,space,space,2,osweb,0,0,0,0,0,2,1745530024017,train_e1,train_e1,fill_pan3,fill_pan3,1024,2,48000,-16,experiment,,0,even,233884,77524,144,233951,80167,53764,107491,75852,76684,231105,232494,131418,120,55646,10461,86884,Nouvelle expérience,27,68754,33,1024
1,0,82,82,2032,2032,#000000,osweb,osweb,0,osweb,1,1,1,undefined,undefined,undefined,q,m,0,28,1,0,0,0,0,28,0,0,0,0,1,1,28,28,0,28,0,0,1,0,0,0,0,0,,400.4804094703942,12.81892965787714,Thu Apr 24 2025 23:26:07 GMT+0200 (heure d’été d’Europe centrale),The main experiment item,1.5,False,C:/Users/rekbi/OneDrive/Bureau,False,mono,False,18,no,#000000,no,no,768,559,1280,1,1,a75f6f75-437c-2915-eb43-01debc9446dd,osweb,0,osweb,,osweb,2.2.1,https://jatos.mindprobe.eu,1,680,1280,0,2,1,0,q,q,m,space,space,1,333,333,2632,6703,1868,23924,15484,43294,20602,space,space,space,2,osweb,0,0,0,0,0,2,1745530024017,train_e1,train_e1,fill_tao2,fill_tiao4,1024,2,48000,-16,experiment,,0,even,236434,77524,144,236783,80167,53764,107491,75852,76684,233954,235314,131418,120,55646,10461,86884,Nouvelle expérience,28,69087,34,1024
1,0,83,83,2028,2028,#000000,osweb,osweb,0,osweb,1,1,1,undefined,undefined,undefined,q,m,0,29,1,0,0,0,0,29,0,0,0,0,1,1,29,29,0,29,0,0,1,0,0,0,0,0,,400.4804094703942,12.81892965787714,Thu Apr 24 2025 23:26:07 GMT+0200 (heure d’été d’Europe centrale),The main experiment item,1.5,False,C:/Users/rekbi/OneDrive/Bureau,False,mono,False,18,no,#000000,no,no,768,559,1280,1,1,a75f6f75-437c-2915-eb43-01debc9446dd,osweb,0,osweb,,osweb,2.2.1,https://jatos.mindprobe.eu,1,680,1280,0,2,1,0,q,q,m,space,space,1,1888,1888,2632,6703,1868,23924,15484,43294,20602,space,space,space,2,osweb,0,0,0,0,0,2,1745530024017,train_e1,train_e1,fill_tao1,fill_mao1,1024,2,48000,-16,experiment,,0,even,239155,77524,144,241048,80167,53764,107491,75852,76684,236786,237984,131418,120,55646,10461,86884,Nouvelle expérience,29,70975,35,1024
1,0,83,83,1978,1978,#000000,osweb,osweb,0,osweb,1,1,1,undefined,undefined,undefined,m,m,0,30,1,0,0,0,0,30,0,0,0,0,1,1,30,30,0,30,0,0,1,0,0,0,0,0,,400.4804094703942,12.81892965787714,Thu Apr 24 2025 23:26:07 GMT+0200 (heure d’été d’Europe centrale),The main experiment item,1.5,False,C:/Users/rekbi/OneDrive/Bureau,False,mono,False,18,no,#000000,no,no,768,559,1280,1,1,a75f6f75-437c-2915-eb43-01debc9446dd,osweb,0,osweb,,osweb,2.2.1,https://jatos.mindprobe.eu,1,680,1280,0,2,1,0,m,m,m,space,space,1,219,219,2632,6703,1868,23924,15484,43294,20602,space,space,space,2,osweb,0,0,0,0,0,2,1745530024017,train_e1,train_e1,fill_yu1,fill_yu1,1024,2,48000,-16,experiment,,0,even,243764,77524,144,243997,80167,53764,107491,75852,76684,241051,242404,131418,120,55646,10461,86884,Nouvelle expérience,30,71194,36,1024
1,0,84,84,1933,1933,#000000,osweb,osweb,0,osweb,1,1,1,undefined,undefined,undefined,q,m,0,31,1,0,0,0,0,31,0,0,0,0,1,1,31,31,0,31,0,0,1,0,0,0,0,0,,400.4804094703942,12.81892965787714,Thu Apr 24 2025 23:26:07 GMT+0200 (heure d’été d’Europe centrale),The main experiment item,1.5,False,C:/Users/rekbi/OneDrive/Bureau,False,mono,False,18,no,#000000,no,no,768,559,1280,1,1,a75f6f75-437c-2915-eb43-01debc9446dd,osweb,0,osweb,,osweb,2.2.1,https://jatos.mindprobe.eu,1,680,1280,0,2,1,0,q,q,m,space,space,1,311,311,2632,6703,1868,23924,15484,43294,20602,space,space,space,2,osweb,0,0,0,0,0,2,1745530024017,train_e1,train_e1,stim_ma1,stim_ma2,1024,2,48000,-16,experiment,,0,even,246204,77524,144,246530,80167,53764,107491,75852,76684,244000,245204,131418,120,55646,10461,86884,Nouvelle expérience,31,71505,37,1024
1,0,84,84,1884,1884,#000000,osweb,osweb,0,osweb,1,1,1,undefined,undefined,undefined,q,m,0,32,1,0,0,0,0,32,0,0,0,0,1,1,32,32,0,32,0,0,1,0,0,0,0,0,,400.4804094703942,12.81892965787714,Thu Apr 24 2025 23:26:07 GMT+0200 (heure d’été d’Europe centrale),The main experiment item,1.5,False,C:/Users/rekbi/OneDrive/Bureau,False,mono,False,18,no,#000000,no,no,768,559,1280,1,1,a75f6f75-437c-2915-eb43-01debc9446dd,osweb,0,osweb,,osweb,2.2.1,https://jatos.mindprobe.eu,1,680,1280,0,2,1,0,q,q,m,space,space,1,78,78,2632,6703,1868,23924,15484,43294,20602,space,space,space,2,osweb,0,0,0,0,0,2,1745530024017,train_e1,train_e1,stim_ban1,stim_ban3,1024,2,48000,-16,experiment,,0,even,249175,77524,144,249262,80167,53764,107491,75852,76684,246533,247714,131418,120,55646,10461,86884,Nouvelle expérience,32,71583,38,1024
1,0,85,85,1905,1905,#000000,osweb,osweb,0,osweb,1,1,1,undefined,undefined,undefined,q,m,0,33,1,0,0,0,0,33,0,0,0,0,1,1,33,33,0,33,0,0,1,0,0,0,0,0,,400.4804094703942,12.81892965787714,Thu Apr 24 2025 23:26:07 GMT+0200 (heure d’été d’Europe centrale),The main experiment item,1.5,False,C:/Users/rekbi/OneDrive/Bureau,False,mono,False,18,no,#000000,no,no,768,559,1280,1,1,a75f6f75-437c-2915-eb43-01debc9446dd,osweb,0,osweb,,osweb,2.2.1,https://jatos.mindprobe.eu,1,680,1280,0,2,1,0,q,q,m,space,space,1,2696,2696,2632,6703,1868,23924,15484,43294,20602,space,space,space,2,osweb,0,0,0,0,0,2,1745530024017,train_e1,train_e1,fill_seng1,fill_song1,1024,2,48000,-16,experiment,,0,even,251824,77524,144,254527,80167,53764,107491,75852,76684,249266,250754,131418,120,55646,10461,86884,Nouvelle expérience,33,74279,39,1024
1,0,85,85,1860,1860,#000000,osweb,osweb,0,osweb,1,1,1,undefined,undefined,undefined,m,m,0,34,1,0,0,0,0,34,0,0,0,0,1,1,34,34,0,34,0,0,1,0,0,0,0,0,,400.4804094703942,12.81892965787714,Thu Apr 24 2025 23:26:07 GMT+0200 (heure d’été d’Europe centrale),The main experiment item,1.5,False,C:/Users/rekbi/OneDrive/Bureau,False,mono,False,18,no,#000000,no,no,768,559,1280,1,1,a75f6f75-437c-2915-eb43-01debc9446dd,osweb,0,osweb,,osweb,2.2.1,https://jatos.mindprobe.eu,1,680,1280,0,2,1,0,m,m,m,space,space,1,140,140,2632,6703,1868,23924,15484,43294,20602,space,space,space,2,osweb,0,0,0,0,0,2,1745530024017,train_e1,train_e1,fill_seng4,fill_seng4,1024,2,48000,-16,experiment,,0,even,258304,77524,144,258459,80167,53764,107491,75852,76684,254531,256414,131418,120,55646,10461,86884,Nouvelle expérience,34,74419,40,1024
1,0,85,85,1853,1853,#000000,osweb,osweb,0,osweb,1,1,1,undefined,undefined,undefined,m,m,0,35,1,0,0,0,0,35,0,0,0,0,1,1,35,35,0,35,0,0,1,0,0,0,0,0,,400.4804094703942,12.81892965787714,Thu Apr 24 2025 23:26:07 GMT+0200 (heure d’été d’Europe centrale),The main experiment item,1.5,False,C:/Users/rekbi/OneDrive/Bureau,False,mono,False,18,no,#000000,no,no,768,559,1280,1,1,a75f6f75-437c-2915-eb43-01debc9446dd,osweb,0,osweb,,osweb,2.2.1,https://jatos.mindprobe.eu,1,680,1280,0,2,1,0,m,m,m,space,space,1,1560,1560,2632,6703,1868,23924,15484,43294,20602,space,space,space,2,osweb,0,0,0,0,0,2,1745530024017,train_e1,train_e1,stim_sheng3,stim_sheng3,1024,2,48000,-16,experiment,,0,even,261554,77524,144,263125,80167,53764,107491,75852,76684,258463,260004,131418,120,55646,10461,86884,Nouvelle expérience,35,75979,41,1024
1,0,86,86,1831,1831,#000000,osweb,osweb,0,osweb,1,1,1,undefined,undefined,undefined,m,m,0,36,1,0,0,0,0,36,0,0,0,0,1,1,36,36,0,36,0,0,1,0,0,0,0,0,,400.4804094703942,12.81892965787714,Thu Apr 24 2025 23:26:07 GMT+0200 (heure d’été d’Europe centrale),The main experiment item,1.5,False,C:/Users/rekbi/OneDrive/Bureau,False,mono,False,18,no,#000000,no,no,768,559,1280,1,1,a75f6f75-437c-2915-eb43-01debc9446dd,osweb,0,osweb,,osweb,2.2.1,https://jatos.mindprobe.eu,1,680,1280,0,2,1,0,m,m,m,space,space,1,906,906,2632,6703,1868,23924,15484,43294,20602,space,space,space,2,osweb,0,0,0,0,0,2,1745530024017,train_e1,train_e1,stim_ma2,stim_ma2,1024,2,48000,-16,experiment,,0,even,265125,77524,144,266040,80167,53764,107491,75852,76684,263128,264125,131418,120,55646,10461,86884,Nouvelle expérience,36,76885,42,1024
1,0,86,86,1792,1792,#000000,osweb,osweb,0,osweb,1,1,1,undefined,undefined,undefined,q,m,0,37,1,0,0,0,0,37,0,0,0,0,1,1,37,37,0,37,0,0,1,0,0,0,0,0,,400.4804094703942,12.81892965787714,Thu Apr 24 2025 23:26:07 GMT+0200 (heure d’été d’Europe centrale),The main experiment item,1.5,False,C:/Users/rekbi/OneDrive/Bureau,False,mono,False,18,no,#000000,no,no,768,559,1280,1,1,a75f6f75-437c-2915-eb43-01debc9446dd,osweb,0,osweb,,osweb,2.2.1,https://jatos.mindprobe.eu,1,680,1280,0,2,1,0,q,q,m,space,space,1,155,155,2632,6703,1868,23924,15484,43294,20602,space,space,space,2,osweb,0,0,0,0,0,2,1745530024017,train_e1,train_e1,fill_la2,fill_ma2,1024,2,48000,-16,experiment,,0,even,268365,77524,144,268523,80167,53764,107491,75852,76684,266043,267365,131418,120,55646,10461,86884,Nouvelle expérience,37,77040,43,1024
1,0,86,86,1777,1777,#000000,osweb,osweb,0,osweb,1,1,1,undefined,undefined,undefined,m,m,0,38,1,0,0,0,0,38,0,0,0,0,1,1,38,38,0,38,0,0,1,0,0,0,0,0,,400.4804094703942,12.81892965787714,Thu Apr 24 2025 23:26:07 GMT+0200 (heure d’été d’Europe centrale),The main experiment item,1.5,False,C:/Users/rekbi/OneDrive/Bureau,False,mono,False,18,no,#000000,no,no,768,559,1280,1,1,a75f6f75-437c-2915-eb43-01debc9446dd,osweb,0,osweb,,osweb,2.2.1,https://jatos.mindprobe.eu,1,680,1280,0,2,1,0,m,m,m,space,space,1,1147,1147,2632,6703,1868,23924,15484,43294,20602,space,space,space,2,osweb,0,0,0,0,0,2,1745530024017,train_e1,train_e1,stim_ban2,stim_ban2,1024,2,48000,-16,experiment,,0,even,270865,77524,144,272022,80167,53764,107491,75852,76684,268526,269695,131418,120,55646,10461,86884,Nouvelle expérience,38,78187,44,1024
1,0,87,87,1743,1743,#000000,osweb,osweb,0,osweb,1,1,1,undefined,undefined,undefined,m,m,0,39,1,0,0,0,0,39,0,0,0,0,1,1,39,39,0,39,0,0,1,0,0,0,0,0,,400.4804094703942,12.81892965787714,Thu Apr 24 2025 23:26:07 GMT+0200 (heure d’été d’Europe centrale),The main experiment item,1.5,False,C:/Users/rekbi/OneDrive/Bureau,False,mono,False,18,no,#000000,no,no,768,559,1280,1,1,a75f6f75-437c-2915-eb43-01debc9446dd,osweb,0,osweb,,osweb,2.2.1,https://jatos.mindprobe.eu,1,680,1280,0,2,1,0,m,m,m,space,space,1,233,233,2632,6703,1868,23924,15484,43294,20602,space,space,space,2,osweb,0,0,0,0,0,2,1745530024017,train_e1,train_e1,fill_yu3,fill_yu3,1024,2,48000,-16,experiment,,0,even,274875,77524,144,275121,80167,53764,107491,75852,76684,272025,273445,131418,120,55646,10461,86884,Nouvelle expérience,39,78420,45,1024
