PERSISTENT,TEMPORARY,acc,accuracy,average_response_time,avg_rt,background,canvas_backend,clock_backend,closed,color_backend,correct,correct_correct_response,correct_correct_response_training,correct_new_1_keyboard_response,correct_new_keyboard_response,correct_new_mouse_response,correct_response,correct_response_train,count_Consent_form,count_correct_response,count_correct_response_training,count_ecouteur_form,count_experiment,count_experiment_loop,count_getting_started,count_logger_exp,count_new_1_keyboard_response,count_new_keyboard_response,count_new_mouse_response,count_osweb,count_play_sampler1,count_play_sampler2,count_play_sound1,count_play_sound2,count_redirect_to_limesurvey,count_stim_fill_sequence,count_study_finished,count_training_loop,count_training_seq,count_training_sketchpad,count_welcome_exp_page,count_welome,credentialless,crossOriginIsolated,cursor_roi,cursor_x,cursor_y,datetime,description,devicePixelRatio,disable_garbage_collection,experiment_path,font_bold,font_family,font_italic,font_size,font_underline,foreground,form_clicks,fullscreen,height,innerHeight,innerWidth,isBrowser,isSecureContext,jatos_uuid,keyboard_backend,length,mouse_backend,name,opensesame_codename,opensesame_version,origin,originAgentCluster,outerHeight,outerWidth,pageXOffset,pageYOffset,penwidth,repeat_cycle,response,response_correct_response,response_correct_response_training,response_new_1_keyboard_response,response_new_keyboard_response,response_new_mouse_response,response_time,response_time_correct_response,response_time_correct_response_training,response_time_new_1_keyboard_response,response_time_new_keyboard_response,response_time_new_mouse_response,response_time_training_sketchpad,response_time_welcome_exp_page,response_time_welome,response_training_sketchpad,response_welcome_exp_page,response_welome,round_decimals,sampler_backend,screenLeft,screenTop,screenX,screenY,scrollX,scrollY,sessionid,sound1,sound2,sound_1,sound_2,sound_buf_size,sound_channels,sound_freq,sound_sample_size,start,status,subject_nr,subject_parity,time_correct_response,time_correct_response_training,time_experiment_loop,time_logger_exp,time_new_1_keyboard_response,time_new_keyboard_response,time_new_mouse_response,time_play_sampler1,time_play_sampler2,time_play_sound1,time_play_sound2,time_redirect_to_limesurvey,time_training_loop,time_training_sketchpad,time_welcome_exp_page,time_welome,title,total_correct,total_response_time,total_responses,width
1,0,33,33,10440,10440,#000000,osweb,osweb,0,osweb,0,0,1,undefined,undefined,undefined,q,q,0,0,1,0,0,0,0,0,0,0,0,0,1,1,0,0,0,0,0,0,1,0,0,0,0,0,stim0,-341,-178.5,Fri Apr 25 2025 09:50:20 GMT+0200 (heure d’été d’Europe centrale),The main experiment item,1,False,C:/Users/rekbi/OneDrive/Bureau,False,mono,False,18,no,#000000,no,no,768,945,1920,1,1,a75f6f75-437c-2915-eb43-01debc9446dd,osweb,0,osweb,,osweb,2.2.1,https://jatos.mindprobe.eu,1,1032,1920,0,0,1,0,m,m,q,space,space,1,15078,15078,1611,19817,735,20050,5408,526,9853,space,space,space,2,osweb,1920,0,1920,0,0,0,1745567421000,train_a1,train_e1,stim_ma1,stim_ma4,1024,2,48000,-16,experiment,,0,even,72996,19360,66,88077,20977,4027,50656,17273,18520,70717,71966,70710,52,4778,3484,40798,Nouvelle expérience,2,62639,6,1024
1,0,43,43,9053,9053,#000000,osweb,osweb,0,osweb,1,1,1,undefined,undefined,undefined,q,q,0,1,1,0,0,0,0,1,0,0,0,0,1,1,1,1,0,1,0,0,1,0,0,0,0,0,stim0,-341,-178.5,Fri Apr 25 2025 09:50:20 GMT+0200 (heure d’été d’Europe centrale),The main experiment item,1,False,C:/Users/rekbi/OneDrive/Bureau,False,mono,False,18,no,#000000,no,no,768,945,1920,1,1,a75f6f75-437c-2915-eb43-01debc9446dd,osweb,0,osweb,,osweb,2.2.1,https://jatos.mindprobe.eu,1,1032,1920,0,0,1,0,q,q,q,space,space,1,732,732,1611,19817,735,20050,5408,526,9853,space,space,space,2,osweb,1920,0,1920,0,0,0,1745567421000,train_a1,train_e1,stim_ban2,stim_ban4,1024,2,48000,-16,experiment,,0,even,90206,19360,66,90946,20977,4027,50656,17273,18520,88080,89246,70710,52,4778,3484,40798,Nouvelle expérience,3,63371,7,1024
1,0,50,50,8026,8026,#000000,osweb,osweb,0,osweb,1,1,1,undefined,undefined,undefined,q,q,0,2,1,0,0,0,0,2,0,0,0,0,1,1,2,2,0,2,0,0,1,0,0,0,0,0,stim0,-341,-178.5,Fri Apr 25 2025 09:50:20 GMT+0200 (heure d’été d’Europe centrale),The main experiment item,1,False,C:/Users/rekbi/OneDrive/Bureau,False,mono,False,18,no,#000000,no,no,768,945,1920,1,1,a75f6f75-437c-2915-eb43-01debc9446dd,osweb,0,osweb,,osweb,2.2.1,https://jatos.mindprobe.eu,1,1032,1920,0,0,1,0,q,q,q,space,space,1,836,836,1611,19817,735,20050,5408,526,9853,space,space,space,2,osweb,1920,0,1920,0,0,0,1745567421000,train_a1,train_e1,stim_ma2,stim_ma4,1024,2,48000,-16,experiment,,0,even,92966,19360,66,93816,20977,4027,50656,17273,18520,90948,91946,70710,52,4778,3484,40798,Nouvelle expérience,4,64207,8,1024
1,0,56,56,7407,7407,#000000,osweb,osweb,0,osweb,1,1,1,undefined,undefined,undefined,m,q,0,3,1,0,0,0,0,3,0,0,0,0,1,1,3,3,0,3,0,0,1,0,0,0,0,0,stim0,-341,-178.5,Fri Apr 25 2025 09:50:20 GMT+0200 (heure d’été d’Europe centrale),The main experiment item,1,False,C:/Users/rekbi/OneDrive/Bureau,False,mono,False,18,no,#000000,no,no,768,945,1920,1,1,a75f6f75-437c-2915-eb43-01debc9446dd,osweb,0,osweb,,osweb,2.2.1,https://jatos.mindprobe.eu,1,1032,1920,0,0,1,0,m,m,q,space,space,1,2454,2454,1611,19817,735,20050,5408,526,9853,space,space,space,2,osweb,1920,0,1920,0,0,0,1745567421000,train_a1,train_e1,stim_yi3,stim_yi3,1024,2,48000,-16,experiment,,0,even,97156,19360,66,99622,20977,4027,50656,17273,18520,93817,95486,70710,52,4778,3484,40798,Nouvelle expérience,5,66661,9,1024
1,0,60,60,6828,6828,#000000,osweb,osweb,0,osweb,1,1,1,undefined,undefined,undefined,q,q,0,4,1,0,0,0,0,4,0,0,0,0,1,1,4,4,0,4,0,0,1,0,0,0,0,0,stim0,-341,-178.5,Fri Apr 25 2025 09:50:20 GMT+0200 (heure d’été d’Europe centrale),The main experiment item,1,False,C:/Users/rekbi/OneDrive/Bureau,False,mono,False,18,no,#000000,no,no,768,945,1920,1,1,a75f6f75-437c-2915-eb43-01debc9446dd,osweb,0,osweb,,osweb,2.2.1,https://jatos.mindprobe.eu,1,1032,1920,0,0,1,0,q,q,q,space,space,1,1616,1616,1611,19817,735,20050,5408,526,9853,space,space,space,2,osweb,1920,0,1920,0,0,0,1745567421000,train_a1,train_e1,fill_pan2,fill_pang2,1024,2,48000,-16,experiment,,0,even,102346,19360,66,103976,20977,4027,50656,17273,18520,99623,100966,70710,52,4778,3484,40798,Nouvelle expérience,6,68277,10,1024
1,0,64,64,6284,6284,#000000,osweb,osweb,0,osweb,1,1,1,undefined,undefined,undefined,q,q,0,5,1,0,0,0,0,5,0,0,0,0,1,1,5,5,0,5,0,0,1,0,0,0,0,0,stim0,-341,-178.5,Fri Apr 25 2025 09:50:20 GMT+0200 (heure d’été d’Europe centrale),The main experiment item,1,False,C:/Users/rekbi/OneDrive/Bureau,False,mono,False,18,no,#000000,no,no,768,945,1920,1,1,a75f6f75-437c-2915-eb43-01debc9446dd,osweb,0,osweb,,osweb,2.2.1,https://jatos.mindprobe.eu,1,1032,1920,0,0,1,0,q,q,q,space,space,1,849,849,1611,19817,735,20050,5408,526,9853,space,space,space,2,osweb,1920,0,1920,0,0,0,1745567421000,train_a1,train_e1,stim_ma1,stim_ma2,1024,2,48000,-16,experiment,,0,even,106186,19360,66,107046,20977,4027,50656,17273,18520,103977,105186,70710,52,4778,3484,40798,Nouvelle expérience,7,69126,11,1024
1,0,67,67,5904,5904,#000000,osweb,osweb,0,osweb,1,1,1,undefined,undefined,undefined,q,q,0,6,1,0,0,0,0,6,0,0,0,0,1,1,6,6,0,6,0,0,1,0,0,0,0,0,stim0,-341,-178.5,Fri Apr 25 2025 09:50:20 GMT+0200 (heure d’été d’Europe centrale),The main experiment item,1,False,C:/Users/rekbi/OneDrive/Bureau,False,mono,False,18,no,#000000,no,no,768,945,1920,1,1,a75f6f75-437c-2915-eb43-01debc9446dd,osweb,0,osweb,,osweb,2.2.1,https://jatos.mindprobe.eu,1,1032,1920,0,0,1,0,q,q,q,space,space,1,1717,1717,1611,19817,735,20050,5408,526,9853,space,space,space,2,osweb,1920,0,1920,0,0,0,1745567421000,train_a1,train_e1,stim_yi2,stim_yi3,1024,2,48000,-16,experiment,,0,even,109766,19360,66,111484,20977,4027,50656,17273,18520,107047,108106,70710,52,4778,3484,40798,Nouvelle expérience,8,70843,12,1024
1,0,69,69,5671,5671,#000000,osweb,osweb,0,osweb,1,1,1,undefined,undefined,undefined,q,q,0,7,1,0,0,0,0,7,0,0,0,0,1,1,7,7,0,7,0,0,1,0,0,0,0,0,stim0,-341,-178.5,Fri Apr 25 2025 09:50:20 GMT+0200 (heure d’été d’Europe centrale),The main experiment item,1,False,C:/Users/rekbi/OneDrive/Bureau,False,mono,False,18,no,#000000,no,no,768,945,1920,1,1,a75f6f75-437c-2915-eb43-01debc9446dd,osweb,0,osweb,,osweb,2.2.1,https://jatos.mindprobe.eu,1,1032,1920,0,0,1,0,q,q,q,space,space,1,2880,2880,1611,19817,735,20050,5408,526,9853,space,space,space,2,osweb,1920,0,1920,0,0,0,1745567421000,train_a1,train_e1,stim_sheng1,stim_sheng4,1024,2,48000,-16,experiment,,0,even,113866,19360,66,116755,20977,4027,50656,17273,18520,111485,112668,70710,52,4778,3484,40798,Nouvelle expérience,9,73723,13,1024
1,0,71,71,5354,5354,#000000,osweb,osweb,0,osweb,1,1,1,undefined,undefined,undefined,m,q,0,8,1,0,0,0,0,8,0,0,0,0,1,1,8,8,0,8,0,0,1,0,0,0,0,0,stim0,-341,-178.5,Fri Apr 25 2025 09:50:20 GMT+0200 (heure d’été d’Europe centrale),The main experiment item,1,False,C:/Users/rekbi/OneDrive/Bureau,False,mono,False,18,no,#000000,no,no,768,945,1920,1,1,a75f6f75-437c-2915-eb43-01debc9446dd,osweb,0,osweb,,osweb,2.2.1,https://jatos.mindprobe.eu,1,1032,1920,0,0,1,0,m,m,q,space,space,1,1239,1239,1611,19817,735,20050,5408,526,9853,space,space,space,2,osweb,1920,0,1920,0,0,0,1745567421000,train_a1,train_e1,stim_sheng4,stim_sheng4,1024,2,48000,-16,experiment,,0,even,119156,19360,66,120409,20977,4027,50656,17273,18520,116757,117956,70710,52,4778,3484,40798,Nouvelle expérience,10,74962,14,1024
1,0,73,73,5087,5087,#000000,osweb,osweb,0,osweb,1,1,1,undefined,undefined,undefined,m,q,0,9,1,0,0,0,0,9,0,0,0,0,1,1,9,9,0,9,0,0,1,0,0,0,0,0,stim0,-341,-178.5,Fri Apr 25 2025 09:50:20 GMT+0200 (heure d’été d’Europe centrale),The main experiment item,1,False,C:/Users/rekbi/OneDrive/Bureau,False,mono,False,18,no,#000000,no,no,768,945,1920,1,1,a75f6f75-437c-2915-eb43-01debc9446dd,osweb,0,osweb,,osweb,2.2.1,https://jatos.mindprobe.eu,1,1032,1920,0,0,1,0,m,m,q,space,space,1,1336,1336,1611,19817,735,20050,5408,526,9853,space,space,space,2,osweb,1920,0,1920,0,0,0,1745567421000,train_a1,train_e1,stim_sheng3,stim_sheng3,1024,2,48000,-16,experiment,,0,even,123507,19360,66,124847,20977,4027,50656,17273,18520,120410,121956,70710,52,4778,3484,40798,Nouvelle expérience,11,76298,15,1024
1,0,75,75,4840,4840,#000000,osweb,osweb,0,osweb,1,1,1,undefined,undefined,undefined,m,q,0,10,1,0,0,0,0,10,0,0,0,0,1,1,10,10,0,10,0,0,1,0,0,0,0,0,stim0,-341,-178.5,Fri Apr 25 2025 09:50:20 GMT+0200 (heure d’été d’Europe centrale),The main experiment item,1,False,C:/Users/rekbi/OneDrive/Bureau,False,mono,False,18,no,#000000,no,no,768,945,1920,1,1,a75f6f75-437c-2915-eb43-01debc9446dd,osweb,0,osweb,,osweb,2.2.1,https://jatos.mindprobe.eu,1,1032,1920,0,0,1,0,m,m,q,space,space,1,1149,1149,1611,19817,735,20050,5408,526,9853,space,space,space,2,osweb,1920,0,1920,0,0,0,1745567421000,train_a1,train_e1,stim_ma2,stim_ma2,1024,2,48000,-16,experiment,,0,even,126846,19360,66,128000,20977,4027,50656,17273,18520,124848,125846,70710,52,4778,3484,40798,Nouvelle expérience,12,77447,16,1024
1,0,76,76,4566,4566,#000000,osweb,osweb,0,osweb,1,1,1,undefined,undefined,undefined,q,q,0,11,1,0,0,0,0,11,0,0,0,0,1,1,11,11,0,11,0,0,1,0,0,0,0,0,stim0,-341,-178.5,Fri Apr 25 2025 09:50:20 GMT+0200 (heure d’été d’Europe centrale),The main experiment item,1,False,C:/Users/rekbi/OneDrive/Bureau,False,mono,False,18,no,#000000,no,no,768,945,1920,1,1,a75f6f75-437c-2915-eb43-01debc9446dd,osweb,0,osweb,,osweb,2.2.1,https://jatos.mindprobe.eu,1,1032,1920,0,0,1,0,q,q,q,space,space,1,173,173,1611,19817,735,20050,5408,526,9853,space,space,space,2,osweb,1920,0,1920,0,0,0,1745567421000,train_a1,train_e1,fill_seng1,fill_seng2,1024,2,48000,-16,experiment,,0,even,130686,19360,66,130870,20977,4027,50656,17273,18520,128001,129486,70710,52,4778,3484,40798,Nouvelle expérience,13,77620,17,1024
1,0,78,78,4469,4469,#000000,osweb,osweb,0,osweb,1,1,1,undefined,undefined,undefined,m,q,0,12,1,0,0,0,0,12,0,0,0,0,1,1,12,12,0,12,0,0,1,0,0,0,0,0,stim0,-341,-178.5,Fri Apr 25 2025 09:50:20 GMT+0200 (heure d’été d’Europe centrale),The main experiment item,1,False,C:/Users/rekbi/OneDrive/Bureau,False,mono,False,18,no,#000000,no,no,768,945,1920,1,1,a75f6f75-437c-2915-eb43-01debc9446dd,osweb,0,osweb,,osweb,2.2.1,https://jatos.mindprobe.eu,1,1032,1920,0,0,1,0,m,m,q,space,space,1,2821,2821,1611,19817,735,20050,5408,526,9853,space,space,space,2,osweb,1920,0,1920,0,0,0,1745567421000,train_a1,train_e1,stim_dao3,stim_dao3,1024,2,48000,-16,experiment,,0,even,132966,19360,66,135791,20977,4027,50656,17273,18520,130871,131916,70710,52,4778,3484,40798,Nouvelle expérience,14,80441,18,1024
1,0,74,74,4254,4254,#000000,osweb,osweb,0,osweb,0,0,1,undefined,undefined,undefined,q,q,0,13,1,0,0,0,0,13,0,0,0,0,1,1,13,13,0,13,0,0,1,0,0,0,0,0,stim0,-341,-178.5,Fri Apr 25 2025 09:50:20 GMT+0200 (heure d’été d’Europe centrale),The main experiment item,1,False,C:/Users/rekbi/OneDrive/Bureau,False,mono,False,18,no,#000000,no,no,768,945,1920,1,1,a75f6f75-437c-2915-eb43-01debc9446dd,osweb,0,osweb,,osweb,2.2.1,https://jatos.mindprobe.eu,1,1032,1920,0,0,1,0,m,m,q,space,space,1,388,388,1611,19817,735,20050,5408,526,9853,space,space,space,2,osweb,1920,0,1920,0,0,0,1745567421000,train_a1,train_e1,fill_qi2,fill_xi2,1024,2,48000,-16,experiment,,0,even,138347,19360,66,138745,20977,4027,50656,17273,18520,135792,137236,70710,52,4778,3484,40798,Nouvelle expérience,14,80829,19,1024
1,0,75,75,4122,4122,#000000,osweb,osweb,0,osweb,1,1,1,undefined,undefined,undefined,m,q,0,14,1,0,0,0,0,14,0,0,0,0,1,1,14,14,0,14,0,0,1,0,0,0,0,0,stim0,-341,-178.5,Fri Apr 25 2025 09:50:20 GMT+0200 (heure d’été d’Europe centrale),The main experiment item,1,False,C:/Users/rekbi/OneDrive/Bureau,False,mono,False,18,no,#000000,no,no,768,945,1920,1,1,a75f6f75-437c-2915-eb43-01debc9446dd,osweb,0,osweb,,osweb,2.2.1,https://jatos.mindprobe.eu,1,1032,1920,0,0,1,0,m,m,q,space,space,1,1618,1618,1611,19817,735,20050,5408,526,9853,space,space,space,2,osweb,1920,0,1920,0,0,0,1745567421000,train_a1,train_e1,fill_yu1,fill_yu1,1024,2,48000,-16,experiment,,0,even,141466,19360,66,143100,20977,4027,50656,17273,18520,138750,140106,70710,52,4778,3484,40798,Nouvelle expérience,15,82447,20,1024
1,0,76,76,3990,3990,#000000,osweb,osweb,0,osweb,1,1,1,undefined,undefined,undefined,m,q,0,15,1,0,0,0,0,15,0,0,0,0,1,1,15,15,0,15,0,0,1,0,0,0,0,0,stim0,-341,-178.5,Fri Apr 25 2025 09:50:20 GMT+0200 (heure d’été d’Europe centrale),The main experiment item,1,False,C:/Users/rekbi/OneDrive/Bureau,False,mono,False,18,no,#000000,no,no,768,945,1920,1,1,a75f6f75-437c-2915-eb43-01debc9446dd,osweb,0,osweb,,osweb,2.2.1,https://jatos.mindprobe.eu,1,1032,1920,0,0,1,0,m,m,q,space,space,1,1336,1336,1611,19817,735,20050,5408,526,9853,space,space,space,2,osweb,1920,0,1920,0,0,0,1745567421000,train_a1,train_e1,fill_yu3,fill_yu3,1024,2,48000,-16,experiment,,0,even,145957,19360,66,147304,20977,4027,50656,17273,18520,143104,144527,70710,52,4778,3484,40798,Nouvelle expérience,16,83783,21,1024
1,0,77,77,3819,3819,#000000,osweb,osweb,0,osweb,1,1,1,undefined,undefined,undefined,q,q,0,16,1,0,0,0,0,16,0,0,0,0,1,1,16,16,0,16,0,0,1,0,0,0,0,0,stim0,-341,-178.5,Fri Apr 25 2025 09:50:20 GMT+0200 (heure d’été d’Europe centrale),The main experiment item,1,False,C:/Users/rekbi/OneDrive/Bureau,False,mono,False,18,no,#000000,no,no,768,945,1920,1,1,a75f6f75-437c-2915-eb43-01debc9446dd,osweb,0,osweb,,osweb,2.2.1,https://jatos.mindprobe.eu,1,1032,1920,0,0,1,0,q,q,q,space,space,1,239,239,1611,19817,735,20050,5408,526,9853,space,space,space,2,osweb,1920,0,1920,0,0,0,1745567421000,train_a1,train_e1,fill_mi1,fill_bi1,1024,2,48000,-16,experiment,,0,even,149727,19360,66,149973,20977,4027,50656,17273,18520,147308,148617,70710,52,4778,3484,40798,Nouvelle expérience,17,84022,22,1024
1,0,78,78,3658,3658,#000000,osweb,osweb,0,osweb,1,1,1,undefined,undefined,undefined,m,q,0,17,1,0,0,0,0,17,0,0,0,0,1,1,17,17,0,17,0,0,1,0,0,0,0,0,stim0,-341,-178.5,Fri Apr 25 2025 09:50:20 GMT+0200 (heure d’été d’Europe centrale),The main experiment item,1,False,C:/Users/rekbi/OneDrive/Bureau,False,mono,False,18,no,#000000,no,no,768,945,1920,1,1,a75f6f75-437c-2915-eb43-01debc9446dd,osweb,0,osweb,,osweb,2.2.1,https://jatos.mindprobe.eu,1,1032,1920,0,0,1,0,m,m,q,space,space,1,103,103,1611,19817,735,20050,5408,526,9853,space,space,space,2,osweb,1920,0,1920,0,0,0,1745567421000,train_a1,train_e1,fill_pan3,fill_pan3,1024,2,48000,-16,experiment,,0,even,152756,19360,66,152875,20977,4027,50656,17273,18520,149977,151367,70710,52,4778,3484,40798,Nouvelle expérience,18,84125,23,1024
1,0,79,79,3524,3524,#000000,osweb,osweb,0,osweb,1,1,1,undefined,undefined,undefined,q,q,0,18,1,0,0,0,0,18,0,0,0,0,1,1,18,18,0,18,0,0,1,0,0,0,0,0,stim0,-341,-178.5,Fri Apr 25 2025 09:50:20 GMT+0200 (heure d’été d’Europe centrale),The main experiment item,1,False,C:/Users/rekbi/OneDrive/Bureau,False,mono,False,18,no,#000000,no,no,768,945,1920,1,1,a75f6f75-437c-2915-eb43-01debc9446dd,osweb,0,osweb,,osweb,2.2.1,https://jatos.mindprobe.eu,1,1032,1920,0,0,1,0,q,q,q,space,space,1,444,444,1611,19817,735,20050,5408,526,9853,space,space,space,2,osweb,1920,0,1920,0,0,0,1745567421000,train_a1,train_e1,fill_sheng1,fill_shong1,1024,2,48000,-16,experiment,,0,even,155217,19360,66,155662,20977,4027,50656,17273,18520,152876,154067,70710,52,4778,3484,40798,Nouvelle expérience,19,84569,24,1024
1,0,80,80,3498,3498,#000000,osweb,osweb,0,osweb,1,1,1,undefined,undefined,undefined,q,q,0,19,1,0,0,0,0,19,0,0,0,0,1,1,19,19,0,19,0,0,1,0,0,0,0,0,stim0,-341,-178.5,Fri Apr 25 2025 09:50:20 GMT+0200 (heure d’été d’Europe centrale),The main experiment item,1,False,C:/Users/rekbi/OneDrive/Bureau,False,mono,False,18,no,#000000,no,no,768,945,1920,1,1,a75f6f75-437c-2915-eb43-01debc9446dd,osweb,0,osweb,,osweb,2.2.1,https://jatos.mindprobe.eu,1,1032,1920,0,0,1,0,q,q,q,space,space,1,2878,2878,1611,19817,735,20050,5408,526,9853,space,space,space,2,osweb,1920,0,1920,0,0,0,1745567421000,train_a1,train_e1,stim_yi2,stim_yi1,1024,2,48000,-16,experiment,,0,even,157647,19360,66,160533,20977,4027,50656,17273,18520,155666,156717,70710,52,4778,3484,40798,Nouvelle expérience,20,87447,25,1024
1,0,77,77,3389,3389,#000000,osweb,osweb,0,osweb,0,0,1,undefined,undefined,undefined,q,q,0,20,1,0,0,0,0,20,0,0,0,0,1,1,20,20,0,20,0,0,1,0,0,0,0,0,stim0,-341,-178.5,Fri Apr 25 2025 09:50:20 GMT+0200 (heure d’été d’Europe centrale),The main experiment item,1,False,C:/Users/rekbi/OneDrive/Bureau,False,mono,False,18,no,#000000,no,no,768,945,1920,1,1,a75f6f75-437c-2915-eb43-01debc9446dd,osweb,0,osweb,,osweb,2.2.1,https://jatos.mindprobe.eu,1,1032,1920,0,0,1,0,m,m,q,space,space,1,674,674,1611,19817,735,20050,5408,526,9853,space,space,space,2,osweb,1920,0,1920,0,0,0,1745567421000,train_a1,train_e1,fill_tao2,fill_tao3,1024,2,48000,-16,experiment,,0,even,163387,19360,66,164070,20977,4027,50656,17273,18520,160537,161896,70710,52,4778,3484,40798,Nouvelle expérience,20,88121,26,1024
1,0,78,78,3281,3281,#000000,osweb,osweb,0,osweb,1,1,1,undefined,undefined,undefined,q,q,0,21,1,0,0,0,0,21,0,0,0,0,1,1,21,21,0,21,0,0,1,0,0,0,0,0,stim0,-341,-178.5,Fri Apr 25 2025 09:50:20 GMT+0200 (heure d’été d’Europe centrale),The main experiment item,1,False,C:/Users/rekbi/OneDrive/Bureau,False,mono,False,18,no,#000000,no,no,768,945,1920,1,1,a75f6f75-437c-2915-eb43-01debc9446dd,osweb,0,osweb,,osweb,2.2.1,https://jatos.mindprobe.eu,1,1032,1920,0,0,1,0,q,q,q,space,space,1,474,474,1611,19817,735,20050,5408,526,9853,space,space,space,2,osweb,1920,0,1920,0,0,0,1745567421000,train_a1,train_e1,fill_tao2,fill_tiao4,1024,2,48000,-16,experiment,,0,even,166546,19360,66,167023,20977,4027,50656,17273,18520,164074,165427,70710,52,4778,3484,40798,Nouvelle expérience,21,88595,27,1024
1,0,79,79,3175,3175,#000000,osweb,osweb,0,osweb,1,1,1,undefined,undefined,undefined,q,q,0,22,1,0,0,0,0,22,0,0,0,0,1,1,22,22,0,22,0,0,1,0,0,0,0,0,stim0,-341,-178.5,Fri Apr 25 2025 09:50:20 GMT+0200 (heure d’été d’Europe centrale),The main experiment item,1,False,C:/Users/rekbi/OneDrive/Bureau,False,mono,False,18,no,#000000,no,no,768,945,1920,1,1,a75f6f75-437c-2915-eb43-01debc9446dd,osweb,0,osweb,,osweb,2.2.1,https://jatos.mindprobe.eu,1,1032,1920,0,0,1,0,q,q,q,space,space,1,291,291,1611,19817,735,20050,5408,526,9853,space,space,space,2,osweb,1920,0,1920,0,0,0,1745567421000,train_a1,train_e1,stim_sheng1,stim_sheng2,1024,2,48000,-16,experiment,,0,even,169577,19360,66,169876,20977,4027,50656,17273,18520,167027,168216,70710,52,4778,3484,40798,Nouvelle expérience,22,88886,28,1024
1,0,79,79,3093,3093,#000000,osweb,osweb,0,osweb,1,1,1,undefined,undefined,undefined,q,q,0,23,1,0,0,0,0,23,0,0,0,0,1,1,23,23,0,23,0,0,1,0,0,0,0,0,stim0,-341,-178.5,Fri Apr 25 2025 09:50:20 GMT+0200 (heure d’été d’Europe centrale),The main experiment item,1,False,C:/Users/rekbi/OneDrive/Bureau,False,mono,False,18,no,#000000,no,no,768,945,1920,1,1,a75f6f75-437c-2915-eb43-01debc9446dd,osweb,0,osweb,,osweb,2.2.1,https://jatos.mindprobe.eu,1,1032,1920,0,0,1,0,q,q,q,space,space,1,825,825,1611,19817,735,20050,5408,526,9853,space,space,space,2,osweb,1920,0,1920,0,0,0,1745567421000,train_a1,train_e1,fill_pan1,fill_pan3,1024,2,48000,-16,experiment,,0,even,172196,19360,66,173030,20977,4027,50656,17273,18520,169881,170807,70710,52,4778,3484,40798,Nouvelle expérience,23,89711,29,1024
1,0,80,80,3006,3006,#000000,osweb,osweb,0,osweb,1,1,1,undefined,undefined,undefined,q,q,0,24,1,0,0,0,0,24,0,0,0,0,1,1,24,24,0,24,0,0,1,0,0,0,0,0,stim0,-341,-178.5,Fri Apr 25 2025 09:50:20 GMT+0200 (heure d’été d’Europe centrale),The main experiment item,1,False,C:/Users/rekbi/OneDrive/Bureau,False,mono,False,18,no,#000000,no,no,768,945,1920,1,1,a75f6f75-437c-2915-eb43-01debc9446dd,osweb,0,osweb,,osweb,2.2.1,https://jatos.mindprobe.eu,1,1032,1920,0,0,1,0,q,q,q,space,space,1,466,466,1611,19817,735,20050,5408,526,9853,space,space,space,2,osweb,1920,0,1920,0,0,0,1745567421000,train_a1,train_e1,stim_dao2,stim_dao4,1024,2,48000,-16,experiment,,0,even,176107,19360,66,176583,20977,4027,50656,17273,18520,173034,174827,70710,52,4778,3484,40798,Nouvelle expérience,24,90177,30,1024
1,0,77,77,2925,2925,#000000,osweb,osweb,0,osweb,0,0,1,undefined,undefined,undefined,q,q,0,25,1,0,0,0,0,25,0,0,0,0,1,1,25,25,0,25,0,0,1,0,0,0,0,0,stim0,-341,-178.5,Fri Apr 25 2025 09:50:20 GMT+0200 (heure d’été d’Europe centrale),The main experiment item,1,False,C:/Users/rekbi/OneDrive/Bureau,False,mono,False,18,no,#000000,no,no,768,945,1920,1,1,a75f6f75-437c-2915-eb43-01debc9446dd,osweb,0,osweb,,osweb,2.2.1,https://jatos.mindprobe.eu,1,1032,1920,0,0,1,0,m,m,q,space,space,1,502,502,1611,19817,735,20050,5408,526,9853,space,space,space,2,osweb,1920,0,1920,0,0,0,1745567421000,train_a1,train_e1,fill_bao3,fill_dao3,1024,2,48000,-16,experiment,,0,even,179097,19360,66,179603,20977,4027,50656,17273,18520,176587,178047,70710,52,4778,3484,40798,Nouvelle expérience,24,90679,31,1024
1,0,78,78,2840,2840,#000000,osweb,osweb,0,osweb,1,1,1,undefined,undefined,undefined,q,q,0,26,1,0,0,0,0,26,0,0,0,0,1,1,26,26,0,26,0,0,1,0,0,0,0,0,stim0,-341,-178.5,Fri Apr 25 2025 09:50:20 GMT+0200 (heure d’été d’Europe centrale),The main experiment item,1,False,C:/Users/rekbi/OneDrive/Bureau,False,mono,False,18,no,#000000,no,no,768,945,1920,1,1,a75f6f75-437c-2915-eb43-01debc9446dd,osweb,0,osweb,,osweb,2.2.1,https://jatos.mindprobe.eu,1,1032,1920,0,0,1,0,q,q,q,space,space,1,203,203,1611,19817,735,20050,5408,526,9853,space,space,space,2,osweb,1920,0,1920,0,0,0,1745567421000,train_a1,train_e1,fill_la2,fill_ma2,1024,2,48000,-16,experiment,,0,even,181937,19360,66,182155,20977,4027,50656,17273,18520,179607,180937,70710,52,4778,3484,40798,Nouvelle expérience,25,90882,32,1024
1,0,79,79,2773,2773,#000000,osweb,osweb,0,osweb,1,1,1,undefined,undefined,undefined,m,q,0,27,1,0,0,0,0,27,0,0,0,0,1,1,27,27,0,27,0,0,1,0,0,0,0,0,stim0,-341,-178.5,Fri Apr 25 2025 09:50:20 GMT+0200 (heure d’été d’Europe centrale),The main experiment item,1,False,C:/Users/rekbi/OneDrive/Bureau,False,mono,False,18,no,#000000,no,no,768,945,1920,1,1,a75f6f75-437c-2915-eb43-01debc9446dd,osweb,0,osweb,,osweb,2.2.1,https://jatos.mindprobe.eu,1,1032,1920,0,0,1,0,m,m,q,space,space,1,638,638,1611,19817,735,20050,5408,526,9853,space,space,space,2,osweb,1920,0,1920,0,0,0,1745567421000,train_a1,train_e1,fill_pan2,fill_pan2,1024,2,48000,-16,experiment,,0,even,184846,19360,66,185492,20977,4027,50656,17273,18520,182159,183496,70710,52,4778,3484,40798,Nouvelle expérience,26,91520,33,1024
1,0,79,79,2699,2699,#000000,osweb,osweb,0,osweb,1,1,1,undefined,undefined,undefined,q,q,0,28,1,0,0,0,0,28,0,0,0,0,1,1,28,28,0,28,0,0,1,0,0,0,0,0,stim0,-341,-178.5,Fri Apr 25 2025 09:50:20 GMT+0200 (heure d’été d’Europe centrale),The main experiment item,1,False,C:/Users/rekbi/OneDrive/Bureau,False,mono,False,18,no,#000000,no,no,768,945,1920,1,1,a75f6f75-437c-2915-eb43-01debc9446dd,osweb,0,osweb,,osweb,2.2.1,https://jatos.mindprobe.eu,1,1032,1920,0,0,1,0,q,q,q,space,space,1,262,262,1611,19817,735,20050,5408,526,9853,space,space,space,2,osweb,1920,0,1920,0,0,0,1745567421000,train_a1,train_e1,fill_la1,fill_ma1,1024,2,48000,-16,experiment,,0,even,188006,19360,66,188278,20977,4027,50656,17273,18520,185496,186797,70710,52,4778,3484,40798,Nouvelle expérience,27,91782,34,1024
1,0,80,80,2654,2654,#000000,osweb,osweb,0,osweb,1,1,1,undefined,undefined,undefined,m,q,0,29,1,0,0,0,0,29,0,0,0,0,1,1,29,29,0,29,0,0,1,0,0,0,0,0,stim0,-341,-178.5,Fri Apr 25 2025 09:50:20 GMT+0200 (heure d’été d’Europe centrale),The main experiment item,1,False,C:/Users/rekbi/OneDrive/Bureau,False,mono,False,18,no,#000000,no,no,768,945,1920,1,1,a75f6f75-437c-2915-eb43-01debc9446dd,osweb,0,osweb,,osweb,2.2.1,https://jatos.mindprobe.eu,1,1032,1920,0,0,1,0,m,m,q,space,space,1,1108,1108,1611,19817,735,20050,5408,526,9853,space,space,space,2,osweb,1920,0,1920,0,0,0,1745567421000,train_a1,train_e1,fill_seng4,fill_seng4,1024,2,48000,-16,experiment,,0,even,192057,19360,66,193166,20977,4027,50656,17273,18520,188281,190167,70710,52,4778,3484,40798,Nouvelle expérience,28,92890,35,1024
1,0,81,81,2587,2587,#000000,osweb,osweb,0,osweb,1,1,1,undefined,undefined,undefined,m,q,0,30,1,0,0,0,0,30,0,0,0,0,1,1,30,30,0,30,0,0,1,0,0,0,0,0,stim0,-341,-178.5,Fri Apr 25 2025 09:50:20 GMT+0200 (heure d’été d’Europe centrale),The main experiment item,1,False,C:/Users/rekbi/OneDrive/Bureau,False,mono,False,18,no,#000000,no,no,768,945,1920,1,1,a75f6f75-437c-2915-eb43-01debc9446dd,osweb,0,osweb,,osweb,2.2.1,https://jatos.mindprobe.eu,1,1032,1920,0,0,1,0,m,m,q,space,space,1,239,239,1611,19817,735,20050,5408,526,9853,space,space,space,2,osweb,1920,0,1920,0,0,0,1745567421000,train_a1,train_e1,stim_yi1,stim_yi1,1024,2,48000,-16,experiment,,0,even,195037,19360,66,195285,20977,4027,50656,17273,18520,193170,194096,70710,52,4778,3484,40798,Nouvelle expérience,29,93129,36,1024
1,0,81,81,2540,2540,#000000,osweb,osweb,0,osweb,1,1,1,undefined,undefined,undefined,q,q,0,31,1,0,0,0,0,31,0,0,0,0,1,1,31,31,0,31,0,0,1,0,0,0,0,0,stim0,-341,-178.5,Fri Apr 25 2025 09:50:20 GMT+0200 (heure d’été d’Europe centrale),The main experiment item,1,False,C:/Users/rekbi/OneDrive/Bureau,False,mono,False,18,no,#000000,no,no,768,945,1920,1,1,a75f6f75-437c-2915-eb43-01debc9446dd,osweb,0,osweb,,osweb,2.2.1,https://jatos.mindprobe.eu,1,1032,1920,0,0,1,0,q,q,q,space,space,1,853,853,1611,19817,735,20050,5408,526,9853,space,space,space,2,osweb,1920,0,1920,0,0,0,1745567421000,train_a1,train_e1,stim_dao2,stim_dao3,1024,2,48000,-16,experiment,,0,even,198136,19360,66,199005,20977,4027,50656,17273,18520,195288,197087,70710,52,4778,3484,40798,Nouvelle expérience,30,93982,37,1024
1,0,82,82,2496,2496,#000000,osweb,osweb,0,osweb,1,1,1,undefined,undefined,undefined,q,q,0,32,1,0,0,0,0,32,0,0,0,0,1,1,32,32,0,32,0,0,1,0,0,0,0,0,stim0,-341,-178.5,Fri Apr 25 2025 09:50:20 GMT+0200 (heure d’été d’Europe centrale),The main experiment item,1,False,C:/Users/rekbi/OneDrive/Bureau,False,mono,False,18,no,#000000,no,no,768,945,1920,1,1,a75f6f75-437c-2915-eb43-01debc9446dd,osweb,0,osweb,,osweb,2.2.1,https://jatos.mindprobe.eu,1,1032,1920,0,0,1,0,q,q,q,space,space,1,858,858,1611,19817,735,20050,5408,526,9853,space,space,space,2,osweb,1920,0,1920,0,0,0,1745567421000,train_a1,train_e1,fill_tao1,fill_mao1,1024,2,48000,-16,experiment,,0,even,201378,19360,66,202241,20977,4027,50656,17273,18520,199009,200207,70710,52,4778,3484,40798,Nouvelle expérience,31,94840,38,1024
1,0,82,82,2456,2456,#000000,osweb,osweb,0,osweb,1,1,1,undefined,undefined,undefined,q,q,0,33,1,0,0,0,0,33,0,0,0,0,1,1,33,33,0,33,0,0,1,0,0,0,0,0,stim0,-341,-178.5,Fri Apr 25 2025 09:50:20 GMT+0200 (heure d’été d’Europe centrale),The main experiment item,1,False,C:/Users/rekbi/OneDrive/Bureau,False,mono,False,18,no,#000000,no,no,768,945,1920,1,1,a75f6f75-437c-2915-eb43-01debc9446dd,osweb,0,osweb,,osweb,2.2.1,https://jatos.mindprobe.eu,1,1032,1920,0,0,1,0,q,q,q,space,space,1,943,943,1611,19817,735,20050,5408,526,9853,space,space,space,2,osweb,1920,0,1920,0,0,0,1745567421000,train_a1,train_e1,fill_pa4,fill_ba4,1024,2,48000,-16,experiment,,0,even,204637,19360,66,205595,20977,4027,50656,17273,18520,202245,203386,70710,52,4778,3484,40798,Nouvelle expérience,32,95783,39,1024
1,0,80,80,2457,2457,#000000,osweb,osweb,0,osweb,0,0,1,undefined,undefined,undefined,q,q,0,34,1,0,0,0,0,34,0,0,0,0,1,1,34,34,0,34,0,0,1,0,0,0,0,0,stim0,-341,-178.5,Fri Apr 25 2025 09:50:20 GMT+0200 (heure d’été d’Europe centrale),The main experiment item,1,False,C:/Users/rekbi/OneDrive/Bureau,False,mono,False,18,no,#000000,no,no,768,945,1920,1,1,a75f6f75-437c-2915-eb43-01debc9446dd,osweb,0,osweb,,osweb,2.2.1,https://jatos.mindprobe.eu,1,1032,1920,0,0,1,0,m,m,q,space,space,1,2480,2480,1611,19817,735,20050,5408,526,9853,space,space,space,2,osweb,1920,0,1920,0,0,0,1745567421000,train_a1,train_e1,stim_dao1,stim_dao4,1024,2,48000,-16,experiment,,0,even,208076,19360,66,210566,20977,4027,50656,17273,18520,205599,206797,70710,52,4778,3484,40798,Nouvelle expérience,32,98263,40,1024
1,0,80,80,2413,2413,#000000,osweb,osweb,0,osweb,1,1,1,undefined,undefined,undefined,m,q,0,35,1,0,0,0,0,35,0,0,0,0,1,1,35,35,0,35,0,0,1,0,0,0,0,0,stim0,-341,-178.5,Fri Apr 25 2025 09:50:20 GMT+0200 (heure d’été d’Europe centrale),The main experiment item,1,False,C:/Users/rekbi/OneDrive/Bureau,False,mono,False,18,no,#000000,no,no,768,945,1920,1,1,a75f6f75-437c-2915-eb43-01debc9446dd,osweb,0,osweb,,osweb,2.2.1,https://jatos.mindprobe.eu,1,1032,1920,0,0,1,0,m,m,q,space,space,1,685,685,1611,19817,735,20050,5408,526,9853,space,space,space,2,osweb,1920,0,1920,0,0,0,1745567421000,train_a1,train_e1,stim_ban3,stim_ban3,1024,2,48000,-16,experiment,,0,even,213486,19360,66,214186,20977,4027,50656,17273,18520,210571,212027,70710,52,4778,3484,40798,Nouvelle expérience,33,98948,41,1024
1,0,81,81,2371,2371,#000000,osweb,osweb,0,osweb,1,1,1,undefined,undefined,undefined,q,q,0,36,1,0,0,0,0,36,0,0,0,0,1,1,36,36,0,36,0,0,1,0,0,0,0,0,stim0,-341,-178.5,Fri Apr 25 2025 09:50:20 GMT+0200 (heure d’été d’Europe centrale),The main experiment item,1,False,C:/Users/rekbi/OneDrive/Bureau,False,mono,False,18,no,#000000,no,no,768,945,1920,1,1,a75f6f75-437c-2915-eb43-01debc9446dd,osweb,0,osweb,,osweb,2.2.1,https://jatos.mindprobe.eu,1,1032,1920,0,0,1,0,q,q,q,space,space,1,626,626,1611,19817,735,20050,5408,526,9853,space,space,space,2,osweb,1920,0,1920,0,0,0,1745567421000,train_a1,train_e1,fill_seng1,fill_song1,1024,2,48000,-16,experiment,,0,even,216747,19360,66,217374,20977,4027,50656,17273,18520,214187,215677,70710,52,4778,3484,40798,Nouvelle expérience,34,99574,42,1024
1,0,81,81,2328,2328,#000000,osweb,osweb,0,osweb,1,1,1,undefined,undefined,undefined,m,q,0,37,1,0,0,0,0,37,0,0,0,0,1,1,37,37,0,37,0,0,1,0,0,0,0,0,stim0,-341,-178.5,Fri Apr 25 2025 09:50:20 GMT+0200 (heure d’été d’Europe centrale),The main experiment item,1,False,C:/Users/rekbi/OneDrive/Bureau,False,mono,False,18,no,#000000,no,no,768,945,1920,1,1,a75f6f75-437c-2915-eb43-01debc9446dd,osweb,0,osweb,,osweb,2.2.1,https://jatos.mindprobe.eu,1,1032,1920,0,0,1,0,m,m,q,space,space,1,521,521,1611,19817,735,20050,5408,526,9853,space,space,space,2,osweb,1920,0,1920,0,0,0,1745567421000,train_a1,train_e1,stim_ban2,stim_ban2,1024,2,48000,-16,experiment,,0,even,219716,19360,66,220244,20977,4027,50656,17273,18520,217378,218546,70710,52,4778,3484,40798,Nouvelle expérience,35,100095,43,1024
1,0,80,80,2288,2288,#000000,osweb,osweb,0,osweb,0,0,1,undefined,undefined,undefined,q,q,0,38,1,0,0,0,0,38,0,0,0,0,1,1,38,38,0,38,0,0,1,0,0,0,0,0,stim0,-341,-178.5,Fri Apr 25 2025 09:50:20 GMT+0200 (heure d’été d’Europe centrale),The main experiment item,1,False,C:/Users/rekbi/OneDrive/Bureau,False,mono,False,18,no,#000000,no,no,768,945,1920,1,1,a75f6f75-437c-2915-eb43-01debc9446dd,osweb,0,osweb,,osweb,2.2.1,https://jatos.mindprobe.eu,1,1032,1920,0,0,1,0,m,m,q,space,space,1,555,555,1611,19817,735,20050,5408,526,9853,space,space,space,2,osweb,1920,0,1920,0,0,0,1745567421000,train_a1,train_e1,stim_ban1,stim_ban3,1024,2,48000,-16,experiment,,0,even,222896,19360,66,223462,20977,4027,50656,17273,18520,220247,221437,70710,52,4778,3484,40798,Nouvelle expérience,35,100650,44,1024
1,0,80,80,2263,2263,#000000,osweb,osweb,0,osweb,1,1,1,undefined,undefined,undefined,q,q,0,39,1,0,0,0,0,39,0,0,0,0,1,1,39,39,0,39,0,0,1,0,0,0,0,0,stim0,-341,-178.5,Fri Apr 25 2025 09:50:20 GMT+0200 (heure d’été d’Europe centrale),The main experiment item,1,False,C:/Users/rekbi/OneDrive/Bureau,False,mono,False,18,no,#000000,no,no,768,945,1920,1,1,a75f6f75-437c-2915-eb43-01debc9446dd,osweb,0,osweb,,osweb,2.2.1,https://jatos.mindprobe.eu,1,1032,1920,0,0,1,0,q,q,q,space,space,1,1190,1190,1611,19817,735,20050,5408,526,9853,space,space,space,2,osweb,1920,0,1920,0,0,0,1745567421000,train_a1,train_e1,fill_li1,fill_la1,1024,2,48000,-16,experiment,,0,even,226277,19360,66,227483,20977,4027,50656,17273,18520,223463,224986,70710,52,4778,3484,40798,Nouvelle expérience,36,101840,45,1024
