PERSISTENT,TEMPORARY,acc,accuracy,average_response_time,avg_rt,background,canvas_backend,clock_backend,closed,color_backend,correct,correct_correct_response,correct_correct_response_training,correct_new_1_keyboard_response,correct_new_keyboard_response,correct_new_mouse_response,correct_response,correct_response_train,count_Consent_form,count_correct_response,count_correct_response_training,count_ecouteur_form,count_experiment,count_experiment_loop,count_getting_started,count_logger_exp,count_new_1_keyboard_response,count_new_keyboard_response,count_new_mouse_response,count_osweb,count_play_sampler1,count_play_sampler2,count_play_sound1,count_play_sound2,count_redirect_to_limesurvey,count_stim_fill_sequence,count_study_finished,count_training_loop,count_training_seq,count_training_sketchpad,count_welcome_exp_page,count_welome,credentialless,crossOriginIsolated,cursor_roi,cursor_x,cursor_y,datetime,description,devicePixelRatio,disable_garbage_collection,experiment_path,font_bold,font_family,font_italic,font_size,font_underline,foreground,form_clicks,fullscreen,height,innerHeight,innerWidth,isBrowser,isSecureContext,jatos_uuid,keyboard_backend,length,mouse_backend,name,opensesame_codename,opensesame_version,origin,originAgentCluster,outerHeight,outerWidth,pageXOffset,pageYOffset,penwidth,repeat_cycle,response,response_correct_response,response_correct_response_training,response_new_1_keyboard_response,response_new_keyboard_response,response_new_mouse_response,response_time,response_time_correct_response,response_time_correct_response_training,response_time_new_1_keyboard_response,response_time_new_keyboard_response,response_time_new_mouse_response,response_time_training_sketchpad,response_time_welcome_exp_page,response_time_welome,response_training_sketchpad,response_welcome_exp_page,response_welome,round_decimals,sampler_backend,screenLeft,screenTop,screenX,screenY,scrollX,scrollY,sessionid,sound1,sound2,sound_1,sound_2,sound_buf_size,sound_channels,sound_freq,sound_sample_size,start,status,subject_nr,subject_parity,time_correct_response,time_correct_response_training,time_experiment_loop,time_logger_exp,time_new_1_keyboard_response,time_new_keyboard_response,time_new_mouse_response,time_play_sampler1,time_play_sampler2,time_play_sound1,time_play_sound2,time_redirect_to_limesurvey,time_training_loop,time_training_sketchpad,time_welcome_exp_page,time_welome,title,total_correct,total_response_time,total_responses,width
1,0,50,50,13143,13143,#000000,osweb,osweb,0,osweb,1,1,1,undefined,undefined,undefined,q,q,0,0,1,0,0,0,0,0,0,0,0,0,1,1,0,0,0,0,0,0,1,0,0,0,0,0,stim0,0.3034090531139175,-13.106267055309061,Thu Apr 24 2025 20:21:17 GMT+0200 (heure d’été d’Europe centrale),The main experiment item,0.8500000238418579,False,C:/Users/rekbi/OneDrive/Bureau,False,mono,False,18,no,#000000,no,no,768,1131,2249,1,1,a75f6f75-437c-2915-eb43-01debc9446dd,osweb,0,osweb,,osweb,2.2.1,https://jatos.mindprobe.eu,1,1040,1920,0,0,1,0,q,q,q,space,space,1,16780,16780,473,5862,1957,50099,6335,15937,18973,space,space,space,2,osweb,0,0,0,0,0,0,1745518939824,train_a1,train_e1,fill_la2,fill_ma2,1024,2,48000,-16,experiment,,1,odd,238997,160735,117,255786,161212,144006,186067,158647,159895,236189,237997,236178,98,145970,128063,167078,Nouvelle expérience,3,78855,6,1024
1,0,57,57,11345,11345,#000000,osweb,osweb,0,osweb,1,1,1,undefined,undefined,undefined,q,q,0,1,1,0,0,0,0,1,0,0,0,0,1,1,1,1,0,1,0,0,1,0,0,0,0,0,stim0,0.3034090531139175,-13.106267055309061,Thu Apr 24 2025 20:21:17 GMT+0200 (heure d’été d’Europe centrale),The main experiment item,0.8500000238418579,False,C:/Users/rekbi/OneDrive/Bureau,False,mono,False,18,no,#000000,no,no,768,1131,2249,1,1,a75f6f75-437c-2915-eb43-01debc9446dd,osweb,0,osweb,,osweb,2.2.1,https://jatos.mindprobe.eu,1,1040,1920,0,0,1,0,q,q,q,space,space,1,563,563,473,5862,1957,50099,6335,15937,18973,space,space,space,2,osweb,0,0,0,0,0,0,1745518939824,train_a1,train_e1,fill_seng1,fill_seng2,1024,2,48000,-16,experiment,,1,odd,258477,160735,117,259051,161212,144006,186067,158647,159895,255789,257278,236178,98,145970,128063,167078,Nouvelle expérience,4,79418,7,1024
1,0,63,63,9972,9972,#000000,osweb,osweb,0,osweb,1,1,1,undefined,undefined,undefined,q,q,0,2,1,0,0,0,0,2,0,0,0,0,1,1,2,2,0,2,0,0,1,0,0,0,0,0,stim0,0.3034090531139175,-13.106267055309061,Thu Apr 24 2025 20:21:17 GMT+0200 (heure d’été d’Europe centrale),The main experiment item,0.8500000238418579,False,C:/Users/rekbi/OneDrive/Bureau,False,mono,False,18,no,#000000,no,no,768,1131,2249,1,1,a75f6f75-437c-2915-eb43-01debc9446dd,osweb,0,osweb,,osweb,2.2.1,https://jatos.mindprobe.eu,1,1040,1920,0,0,1,0,q,q,q,space,space,1,361,361,473,5862,1957,50099,6335,15937,18973,space,space,space,2,osweb,0,0,0,0,0,0,1745518939824,train_a1,train_e1,stim_yi2,stim_yi1,1024,2,48000,-16,experiment,,1,odd,261037,160735,117,261400,161212,144006,186067,158647,159895,259053,260107,236178,98,145970,128063,167078,Nouvelle expérience,5,79779,8,1024
1,0,67,67,8872,8872,#000000,osweb,osweb,0,osweb,1,1,1,undefined,undefined,undefined,q,q,0,3,1,0,0,0,0,3,0,0,0,0,1,1,3,3,0,3,0,0,1,0,0,0,0,0,stim0,0.3034090531139175,-13.106267055309061,Thu Apr 24 2025 20:21:17 GMT+0200 (heure d’été d’Europe centrale),The main experiment item,0.8500000238418579,False,C:/Users/rekbi/OneDrive/Bureau,False,mono,False,18,no,#000000,no,no,768,1131,2249,1,1,a75f6f75-437c-2915-eb43-01debc9446dd,osweb,0,osweb,,osweb,2.2.1,https://jatos.mindprobe.eu,1,1040,1920,0,0,1,0,q,q,q,space,space,1,70,70,473,5862,1957,50099,6335,15937,18973,space,space,space,2,osweb,0,0,0,0,0,0,1745518939824,train_a1,train_e1,stim_yi2,stim_yi3,1024,2,48000,-16,experiment,,1,odd,264117,160735,117,264198,161212,144006,186067,158647,159895,261402,262457,236178,98,145970,128063,167078,Nouvelle expérience,6,79849,9,1024
1,0,70,70,8006,8006,#000000,osweb,osweb,0,osweb,1,1,1,undefined,undefined,undefined,q,q,0,4,1,0,0,0,0,4,0,0,0,0,1,1,4,4,0,4,0,0,1,0,0,0,0,0,stim0,0.3034090531139175,-13.106267055309061,Thu Apr 24 2025 20:21:17 GMT+0200 (heure d’été d’Europe centrale),The main experiment item,0.8500000238418579,False,C:/Users/rekbi/OneDrive/Bureau,False,mono,False,18,no,#000000,no,no,768,1131,2249,1,1,a75f6f75-437c-2915-eb43-01debc9446dd,osweb,0,osweb,,osweb,2.2.1,https://jatos.mindprobe.eu,1,1040,1920,0,0,1,0,q,q,q,space,space,1,211,211,473,5862,1957,50099,6335,15937,18973,space,space,space,2,osweb,0,0,0,0,0,0,1745518939824,train_a1,train_e1,fill_tao2,fill_tao3,1024,2,48000,-16,experiment,,1,odd,267047,160735,117,267264,161212,144006,186067,158647,159895,264200,265557,236178,98,145970,128063,167078,Nouvelle expérience,7,80060,10,1024
1,0,73,73,7468,7468,#000000,osweb,osweb,0,osweb,1,1,1,undefined,undefined,undefined,q,q,0,5,1,0,0,0,0,5,0,0,0,0,1,1,5,5,0,5,0,0,1,0,0,0,0,0,stim0,0.3034090531139175,-13.106267055309061,Thu Apr 24 2025 20:21:17 GMT+0200 (heure d’été d’Europe centrale),The main experiment item,0.8500000238418579,False,C:/Users/rekbi/OneDrive/Bureau,False,mono,False,18,no,#000000,no,no,768,1131,2249,1,1,a75f6f75-437c-2915-eb43-01debc9446dd,osweb,0,osweb,,osweb,2.2.1,https://jatos.mindprobe.eu,1,1040,1920,0,0,1,0,q,q,q,space,space,1,2083,2083,473,5862,1957,50099,6335,15937,18973,space,space,space,2,osweb,0,0,0,0,0,0,1745518939824,train_a1,train_e1,fill_qi2,fill_xi2,1024,2,48000,-16,experiment,,1,odd,269817,160735,117,271912,161212,144006,186067,158647,159895,267266,268707,236178,98,145970,128063,167078,Nouvelle expérience,8,82143,11,1024
1,0,75,75,7461,7461,#000000,osweb,osweb,0,osweb,1,1,1,undefined,undefined,undefined,q,q,0,6,1,0,0,0,0,6,0,0,0,0,1,1,6,6,0,6,0,0,1,0,0,0,0,0,stim0,0.3034090531139175,-13.106267055309061,Thu Apr 24 2025 20:21:17 GMT+0200 (heure d’été d’Europe centrale),The main experiment item,0.8500000238418579,False,C:/Users/rekbi/OneDrive/Bureau,False,mono,False,18,no,#000000,no,no,768,1131,2249,1,1,a75f6f75-437c-2915-eb43-01debc9446dd,osweb,0,osweb,,osweb,2.2.1,https://jatos.mindprobe.eu,1,1040,1920,0,0,1,0,q,q,q,space,space,1,7387,7387,473,5862,1957,50099,6335,15937,18973,space,space,space,2,osweb,0,0,0,0,0,0,1745518939824,train_a1,train_e1,fill_la1,fill_ma1,1024,2,48000,-16,experiment,,1,odd,274407,160735,117,281807,161212,144006,186067,158647,159895,271913,273197,236178,98,145970,128063,167078,Nouvelle expérience,9,89530,12,1024
1,0,77,77,7142,7142,#000000,osweb,osweb,0,osweb,1,1,1,undefined,undefined,undefined,m,q,0,7,1,0,0,0,0,7,0,0,0,0,1,1,7,7,0,7,0,0,1,0,0,0,0,0,stim0,0.3034090531139175,-13.106267055309061,Thu Apr 24 2025 20:21:17 GMT+0200 (heure d’été d’Europe centrale),The main experiment item,0.8500000238418579,False,C:/Users/rekbi/OneDrive/Bureau,False,mono,False,18,no,#000000,no,no,768,1131,2249,1,1,a75f6f75-437c-2915-eb43-01debc9446dd,osweb,0,osweb,,osweb,2.2.1,https://jatos.mindprobe.eu,1,1040,1920,0,0,1,0,m,m,q,space,space,1,3322,3322,473,5862,1957,50099,6335,15937,18973,space,space,space,2,osweb,0,0,0,0,0,0,1745518939824,train_a1,train_e1,stim_yi3,stim_yi3,1024,2,48000,-16,experiment,,1,odd,285147,160735,117,288471,161212,144006,186067,158647,159895,281809,283477,236178,98,145970,128063,167078,Nouvelle expérience,10,92852,13,1024
1,0,79,79,6692,6692,#000000,osweb,osweb,0,osweb,1,1,1,undefined,undefined,undefined,q,q,0,8,1,0,0,0,0,8,0,0,0,0,1,1,8,8,0,8,0,0,1,0,0,0,0,0,stim0,0.3034090531139175,-13.106267055309061,Thu Apr 24 2025 20:21:17 GMT+0200 (heure d’été d’Europe centrale),The main experiment item,0.8500000238418579,False,C:/Users/rekbi/OneDrive/Bureau,False,mono,False,18,no,#000000,no,no,768,1131,2249,1,1,a75f6f75-437c-2915-eb43-01debc9446dd,osweb,0,osweb,,osweb,2.2.1,https://jatos.mindprobe.eu,1,1040,1920,0,0,1,0,q,q,q,space,space,1,840,840,473,5862,1957,50099,6335,15937,18973,space,space,space,2,osweb,0,0,0,0,0,0,1745518939824,train_a1,train_e1,stim_ma1,stim_ma4,1024,2,48000,-16,experiment,,1,odd,290707,160735,117,291553,161212,144006,186067,158647,159895,288472,289678,236178,98,145970,128063,167078,Nouvelle expérience,11,93692,14,1024
1,0,73,73,6271,6271,#000000,osweb,osweb,0,osweb,0,0,1,undefined,undefined,undefined,q,q,0,9,1,0,0,0,0,9,0,0,0,0,1,1,9,9,0,9,0,0,1,0,0,0,0,0,stim0,0.3034090531139175,-13.106267055309061,Thu Apr 24 2025 20:21:17 GMT+0200 (heure d’été d’Europe centrale),The main experiment item,0.8500000238418579,False,C:/Users/rekbi/OneDrive/Bureau,False,mono,False,18,no,#000000,no,no,768,1131,2249,1,1,a75f6f75-437c-2915-eb43-01debc9446dd,osweb,0,osweb,,osweb,2.2.1,https://jatos.mindprobe.eu,1,1040,1920,0,0,1,0,m,m,q,space,space,1,377,377,473,5862,1957,50099,6335,15937,18973,space,space,space,2,osweb,0,0,0,0,0,0,1745518939824,train_a1,train_e1,fill_seng1,fill_song1,1024,2,48000,-16,experiment,,1,odd,294108,160735,117,294485,161212,144006,186067,158647,159895,291554,293038,236178,98,145970,128063,167078,Nouvelle expérience,11,94069,15,1024
1,0,75,75,5899,5899,#000000,osweb,osweb,0,osweb,1,1,1,undefined,undefined,undefined,q,q,0,10,1,0,0,0,0,10,0,0,0,0,1,1,10,10,0,10,0,0,1,0,0,0,0,0,stim0,0.3034090531139175,-13.106267055309061,Thu Apr 24 2025 20:21:17 GMT+0200 (heure d’été d’Europe centrale),The main experiment item,0.8500000238418579,False,C:/Users/rekbi/OneDrive/Bureau,False,mono,False,18,no,#000000,no,no,768,1131,2249,1,1,a75f6f75-437c-2915-eb43-01debc9446dd,osweb,0,osweb,,osweb,2.2.1,https://jatos.mindprobe.eu,1,1040,1920,0,0,1,0,q,q,q,space,space,1,310,310,473,5862,1957,50099,6335,15937,18973,space,space,space,2,osweb,0,0,0,0,0,0,1745518939824,train_a1,train_e1,stim_sheng1,stim_sheng2,1024,2,48000,-16,experiment,,1,odd,297037,160735,117,297350,161212,144006,186067,158647,159895,294487,295677,236178,98,145970,128063,167078,Nouvelle expérience,12,94379,16,1024
1,0,76,76,5556,5556,#000000,osweb,osweb,0,osweb,1,1,1,undefined,undefined,undefined,m,q,0,11,1,0,0,0,0,11,0,0,0,0,1,1,11,11,0,11,0,0,1,0,0,0,0,0,stim0,0.3034090531139175,-13.106267055309061,Thu Apr 24 2025 20:21:17 GMT+0200 (heure d’été d’Europe centrale),The main experiment item,0.8500000238418579,False,C:/Users/rekbi/OneDrive/Bureau,False,mono,False,18,no,#000000,no,no,768,1131,2249,1,1,a75f6f75-437c-2915-eb43-01debc9446dd,osweb,0,osweb,,osweb,2.2.1,https://jatos.mindprobe.eu,1,1040,1920,0,0,1,0,m,m,q,space,space,1,68,68,473,5862,1957,50099,6335,15937,18973,space,space,space,2,osweb,0,0,0,0,0,0,1745518939824,train_a1,train_e1,fill_pan2,fill_pan2,1024,2,48000,-16,experiment,,1,odd,300037,160735,117,300117,161212,144006,186067,158647,159895,297352,298687,236178,98,145970,128063,167078,Nouvelle expérience,13,94447,17,1024
1,0,78,78,5281,5281,#000000,osweb,osweb,0,osweb,1,1,1,undefined,undefined,undefined,q,q,0,12,1,0,0,0,0,12,0,0,0,0,1,1,12,12,0,12,0,0,1,0,0,0,0,0,stim0,0.3034090531139175,-13.106267055309061,Thu Apr 24 2025 20:21:17 GMT+0200 (heure d’été d’Europe centrale),The main experiment item,0.8500000238418579,False,C:/Users/rekbi/OneDrive/Bureau,False,mono,False,18,no,#000000,no,no,768,1131,2249,1,1,a75f6f75-437c-2915-eb43-01debc9446dd,osweb,0,osweb,,osweb,2.2.1,https://jatos.mindprobe.eu,1,1040,1920,0,0,1,0,q,q,q,space,space,1,602,602,473,5862,1957,50099,6335,15937,18973,space,space,space,2,osweb,0,0,0,0,0,0,1745518939824,train_a1,train_e1,fill_li1,fill_la1,1024,2,48000,-16,experiment,,1,odd,302947,160735,117,303564,161212,144006,186067,158647,159895,300119,301647,236178,98,145970,128063,167078,Nouvelle expérience,14,95049,18,1024
1,0,79,79,5008,5008,#000000,osweb,osweb,0,osweb,1,1,1,undefined,undefined,undefined,m,q,0,13,1,0,0,0,0,13,0,0,0,0,1,1,13,13,0,13,0,0,1,0,0,0,0,0,stim0,0.3034090531139175,-13.106267055309061,Thu Apr 24 2025 20:21:17 GMT+0200 (heure d’été d’Europe centrale),The main experiment item,0.8500000238418579,False,C:/Users/rekbi/OneDrive/Bureau,False,mono,False,18,no,#000000,no,no,768,1131,2249,1,1,a75f6f75-437c-2915-eb43-01debc9446dd,osweb,0,osweb,,osweb,2.2.1,https://jatos.mindprobe.eu,1,1040,1920,0,0,1,0,m,m,q,space,space,1,105,105,473,5862,1957,50099,6335,15937,18973,space,space,space,2,osweb,0,0,0,0,0,0,1745518939824,train_a1,train_e1,stim_sheng4,stim_sheng4,1024,2,48000,-16,experiment,,1,odd,305957,160735,117,306063,161212,144006,186067,158647,159895,303566,304757,236178,98,145970,128063,167078,Nouvelle expérience,15,95154,19,1024
1,0,80,80,4837,4837,#000000,osweb,osweb,0,osweb,1,1,1,undefined,undefined,undefined,q,q,0,14,1,0,0,0,0,14,0,0,0,0,1,1,14,14,0,14,0,0,1,0,0,0,0,0,stim0,0.3034090531139175,-13.106267055309061,Thu Apr 24 2025 20:21:17 GMT+0200 (heure d’été d’Europe centrale),The main experiment item,0.8500000238418579,False,C:/Users/rekbi/OneDrive/Bureau,False,mono,False,18,no,#000000,no,no,768,1131,2249,1,1,a75f6f75-437c-2915-eb43-01debc9446dd,osweb,0,osweb,,osweb,2.2.1,https://jatos.mindprobe.eu,1,1040,1920,0,0,1,0,q,q,q,space,space,1,1576,1576,473,5862,1957,50099,6335,15937,18973,space,space,space,2,osweb,0,0,0,0,0,0,1745518939824,train_a1,train_e1,stim_dao2,stim_dao4,1024,2,48000,-16,experiment,,1,odd,309137,160735,117,310728,161212,144006,186067,158647,159895,306065,307857,236178,98,145970,128063,167078,Nouvelle expérience,16,96730,20,1024
1,0,81,81,4611,4611,#000000,osweb,osweb,0,osweb,1,1,1,undefined,undefined,undefined,m,q,0,15,1,0,0,0,0,15,0,0,0,0,1,1,15,15,0,15,0,0,1,0,0,0,0,0,stim0,0.3034090531139175,-13.106267055309061,Thu Apr 24 2025 20:21:17 GMT+0200 (heure d’été d’Europe centrale),The main experiment item,0.8500000238418579,False,C:/Users/rekbi/OneDrive/Bureau,False,mono,False,18,no,#000000,no,no,768,1131,2249,1,1,a75f6f75-437c-2915-eb43-01debc9446dd,osweb,0,osweb,,osweb,2.2.1,https://jatos.mindprobe.eu,1,1040,1920,0,0,1,0,m,m,q,space,space,1,95,95,473,5862,1957,50099,6335,15937,18973,space,space,space,2,osweb,0,0,0,0,0,0,1745518939824,train_a1,train_e1,fill_yu1,fill_yu1,1024,2,48000,-16,experiment,,1,odd,313447,160735,117,313543,161212,144006,186067,158647,159895,310729,312087,236178,98,145970,128063,167078,Nouvelle expérience,17,96825,21,1024
1,0,77,77,4447,4447,#000000,osweb,osweb,0,osweb,0,0,1,undefined,undefined,undefined,q,q,0,16,1,0,0,0,0,16,0,0,0,0,1,1,16,16,0,16,0,0,1,0,0,0,0,0,stim0,0.3034090531139175,-13.106267055309061,Thu Apr 24 2025 20:21:17 GMT+0200 (heure d’été d’Europe centrale),The main experiment item,0.8500000238418579,False,C:/Users/rekbi/OneDrive/Bureau,False,mono,False,18,no,#000000,no,no,768,1131,2249,1,1,a75f6f75-437c-2915-eb43-01debc9446dd,osweb,0,osweb,,osweb,2.2.1,https://jatos.mindprobe.eu,1,1040,1920,0,0,1,0,m,m,q,space,space,1,1000,1000,473,5862,1957,50099,6335,15937,18973,space,space,space,2,osweb,0,0,0,0,0,0,1745518939824,train_a1,train_e1,fill_bao3,fill_dao3,1024,2,48000,-16,experiment,,1,odd,316047,160735,117,317058,161212,144006,186067,158647,159895,313544,314998,236178,98,145970,128063,167078,Nouvelle expérience,17,97825,22,1024
1,0,78,78,4254,4254,#000000,osweb,osweb,0,osweb,1,1,1,undefined,undefined,undefined,m,q,0,17,1,0,0,0,0,17,0,0,0,0,1,1,17,17,0,17,0,0,1,0,0,0,0,0,stim0,0.3034090531139175,-13.106267055309061,Thu Apr 24 2025 20:21:17 GMT+0200 (heure d’été d’Europe centrale),The main experiment item,0.8500000238418579,False,C:/Users/rekbi/OneDrive/Bureau,False,mono,False,18,no,#000000,no,no,768,1131,2249,1,1,a75f6f75-437c-2915-eb43-01debc9446dd,osweb,0,osweb,,osweb,2.2.1,https://jatos.mindprobe.eu,1,1040,1920,0,0,1,0,m,m,q,space,space,1,23,23,473,5862,1957,50099,6335,15937,18973,space,space,space,2,osweb,0,0,0,0,0,0,1745518939824,train_a1,train_e1,stim_ban2,stim_ban2,1024,2,48000,-16,experiment,,1,odd,319397,160735,117,319424,161212,144006,186067,158647,159895,317060,318227,236178,98,145970,128063,167078,Nouvelle expérience,18,97848,23,1024
1,0,79,79,4130,4130,#000000,osweb,osweb,0,osweb,1,1,1,undefined,undefined,undefined,q,q,0,18,1,0,0,0,0,18,0,0,0,0,1,1,18,18,0,18,0,0,1,0,0,0,0,0,stim0,0.3034090531139175,-13.106267055309061,Thu Apr 24 2025 20:21:17 GMT+0200 (heure d’été d’Europe centrale),The main experiment item,0.8500000238418579,False,C:/Users/rekbi/OneDrive/Bureau,False,mono,False,18,no,#000000,no,no,768,1131,2249,1,1,a75f6f75-437c-2915-eb43-01debc9446dd,osweb,0,osweb,,osweb,2.2.1,https://jatos.mindprobe.eu,1,1040,1920,0,0,1,0,q,q,q,space,space,1,1278,1278,473,5862,1957,50099,6335,15937,18973,space,space,space,2,osweb,0,0,0,0,0,0,1745518939824,train_a1,train_e1,stim_ban2,stim_ban4,1024,2,48000,-16,experiment,,1,odd,321547,160735,117,322838,161212,144006,186067,158647,159895,319425,320587,236178,98,145970,128063,167078,Nouvelle expérience,19,99126,24,1024
1,0,80,80,3966,3966,#000000,osweb,osweb,0,osweb,1,1,1,undefined,undefined,undefined,q,q,0,19,1,0,0,0,0,19,0,0,0,0,1,1,19,19,0,19,0,0,1,0,0,0,0,0,stim0,0.3034090531139175,-13.106267055309061,Thu Apr 24 2025 20:21:17 GMT+0200 (heure d’été d’Europe centrale),The main experiment item,0.8500000238418579,False,C:/Users/rekbi/OneDrive/Bureau,False,mono,False,18,no,#000000,no,no,768,1131,2249,1,1,a75f6f75-437c-2915-eb43-01debc9446dd,osweb,0,osweb,,osweb,2.2.1,https://jatos.mindprobe.eu,1,1040,1920,0,0,1,0,q,q,q,space,space,1,29,29,473,5862,1957,50099,6335,15937,18973,space,space,space,2,osweb,0,0,0,0,0,0,1745518939824,train_a1,train_e1,fill_tao1,fill_mao1,1024,2,48000,-16,experiment,,1,odd,325207,160735,117,325237,161212,144006,186067,158647,159895,322840,324038,236178,98,145970,128063,167078,Nouvelle expérience,20,99155,25,1024
1,0,81,81,3831,3831,#000000,osweb,osweb,0,osweb,1,1,1,undefined,undefined,undefined,q,q,0,20,1,0,0,0,0,20,0,0,0,0,1,1,20,20,0,20,0,0,1,0,0,0,0,0,stim0,0.3034090531139175,-13.106267055309061,Thu Apr 24 2025 20:21:17 GMT+0200 (heure d’été d’Europe centrale),The main experiment item,0.8500000238418579,False,C:/Users/rekbi/OneDrive/Bureau,False,mono,False,18,no,#000000,no,no,768,1131,2249,1,1,a75f6f75-437c-2915-eb43-01debc9446dd,osweb,0,osweb,,osweb,2.2.1,https://jatos.mindprobe.eu,1,1040,1920,0,0,1,0,q,q,q,space,space,1,447,447,473,5862,1957,50099,6335,15937,18973,space,space,space,2,osweb,0,0,0,0,0,0,1745518939824,train_a1,train_e1,fill_pa4,fill_ba4,1024,2,48000,-16,experiment,,1,odd,327637,160735,117,328086,161212,144006,186067,158647,159895,325239,326388,236178,98,145970,128063,167078,Nouvelle expérience,21,99602,26,1024
1,0,81,81,3692,3692,#000000,osweb,osweb,0,osweb,1,1,1,undefined,undefined,undefined,q,q,0,21,1,0,0,0,0,21,0,0,0,0,1,1,21,21,0,21,0,0,1,0,0,0,0,0,stim0,0.3034090531139175,-13.106267055309061,Thu Apr 24 2025 20:21:17 GMT+0200 (heure d’été d’Europe centrale),The main experiment item,0.8500000238418579,False,C:/Users/rekbi/OneDrive/Bureau,False,mono,False,18,no,#000000,no,no,768,1131,2249,1,1,a75f6f75-437c-2915-eb43-01debc9446dd,osweb,0,osweb,,osweb,2.2.1,https://jatos.mindprobe.eu,1,1040,1920,0,0,1,0,q,q,q,space,space,1,71,71,473,5862,1957,50099,6335,15937,18973,space,space,space,2,osweb,0,0,0,0,0,0,1745518939824,train_a1,train_e1,fill_pan2,fill_pang2,1024,2,48000,-16,experiment,,1,odd,330817,160735,117,330901,161212,144006,186067,158647,159895,328088,329438,236178,98,145970,128063,167078,Nouvelle expérience,22,99673,27,1024
1,0,82,82,3610,3610,#000000,osweb,osweb,0,osweb,1,1,1,undefined,undefined,undefined,q,q,0,22,1,0,0,0,0,22,0,0,0,0,1,1,22,22,0,22,0,0,1,0,0,0,0,0,stim0,0.3034090531139175,-13.106267055309061,Thu Apr 24 2025 20:21:17 GMT+0200 (heure d’été d’Europe centrale),The main experiment item,0.8500000238418579,False,C:/Users/rekbi/OneDrive/Bureau,False,mono,False,18,no,#000000,no,no,768,1131,2249,1,1,a75f6f75-437c-2915-eb43-01debc9446dd,osweb,0,osweb,,osweb,2.2.1,https://jatos.mindprobe.eu,1,1040,1920,0,0,1,0,q,q,q,space,space,1,1414,1414,473,5862,1957,50099,6335,15937,18973,space,space,space,2,osweb,0,0,0,0,0,0,1745518939824,train_a1,train_e1,stim_ma1,stim_ma2,1024,2,48000,-16,experiment,,1,odd,333108,160735,117,334533,161212,144006,186067,158647,159895,330903,332107,236178,98,145970,128063,167078,Nouvelle expérience,23,101087,28,1024
1,0,83,83,3502,3502,#000000,osweb,osweb,0,osweb,1,1,1,undefined,undefined,undefined,q,q,0,23,1,0,0,0,0,23,0,0,0,0,1,1,23,23,0,23,0,0,1,0,0,0,0,0,stim0,0.3034090531139175,-13.106267055309061,Thu Apr 24 2025 20:21:17 GMT+0200 (heure d’été d’Europe centrale),The main experiment item,0.8500000238418579,False,C:/Users/rekbi/OneDrive/Bureau,False,mono,False,18,no,#000000,no,no,768,1131,2249,1,1,a75f6f75-437c-2915-eb43-01debc9446dd,osweb,0,osweb,,osweb,2.2.1,https://jatos.mindprobe.eu,1,1040,1920,0,0,1,0,q,q,q,space,space,1,463,463,473,5862,1957,50099,6335,15937,18973,space,space,space,2,osweb,0,0,0,0,0,0,1745518939824,train_a1,train_e1,fill_mi1,fill_bi1,1024,2,48000,-16,experiment,,1,odd,336958,160735,117,337432,161212,144006,186067,158647,159895,334534,335847,236178,98,145970,128063,167078,Nouvelle expérience,24,101550,29,1024
1,0,83,83,3406,3406,#000000,osweb,osweb,0,osweb,1,1,1,undefined,undefined,undefined,m,q,0,24,1,0,0,0,0,24,0,0,0,0,1,1,24,24,0,24,0,0,1,0,0,0,0,0,stim0,0.3034090531139175,-13.106267055309061,Thu Apr 24 2025 20:21:17 GMT+0200 (heure d’été d’Europe centrale),The main experiment item,0.8500000238418579,False,C:/Users/rekbi/OneDrive/Bureau,False,mono,False,18,no,#000000,no,no,768,1131,2249,1,1,a75f6f75-437c-2915-eb43-01debc9446dd,osweb,0,osweb,,osweb,2.2.1,https://jatos.mindprobe.eu,1,1040,1920,0,0,1,0,m,m,q,space,space,1,640,640,473,5862,1957,50099,6335,15937,18973,space,space,space,2,osweb,0,0,0,0,0,0,1745518939824,train_a1,train_e1,fill_yu3,fill_yu3,1024,2,48000,-16,experiment,,1,odd,340287,160735,117,340930,161212,144006,186067,158647,159895,337434,338857,236178,98,145970,128063,167078,Nouvelle expérience,25,102190,30,1024
1,0,84,84,3303,3303,#000000,osweb,osweb,0,osweb,1,1,1,undefined,undefined,undefined,q,q,0,25,1,0,0,0,0,25,0,0,0,0,1,1,25,25,0,25,0,0,1,0,0,0,0,0,stim0,0.3034090531139175,-13.106267055309061,Thu Apr 24 2025 20:21:17 GMT+0200 (heure d’été d’Europe centrale),The main experiment item,0.8500000238418579,False,C:/Users/rekbi/OneDrive/Bureau,False,mono,False,18,no,#000000,no,no,768,1131,2249,1,1,a75f6f75-437c-2915-eb43-01debc9446dd,osweb,0,osweb,,osweb,2.2.1,https://jatos.mindprobe.eu,1,1040,1920,0,0,1,0,q,q,q,space,space,1,205,205,473,5862,1957,50099,6335,15937,18973,space,space,space,2,osweb,0,0,0,0,0,0,1745518939824,train_a1,train_e1,stim_ban1,stim_ban3,1024,2,48000,-16,experiment,,1,odd,343577,160735,117,343796,161212,144006,186067,158647,159895,340933,342118,236178,98,145970,128063,167078,Nouvelle expérience,26,102395,31,1024
1,0,84,84,3237,3237,#000000,osweb,osweb,0,osweb,1,1,1,undefined,undefined,undefined,q,q,0,26,1,0,0,0,0,26,0,0,0,0,1,1,26,26,0,26,0,0,1,0,0,0,0,0,stim0,0.3034090531139175,-13.106267055309061,Thu Apr 24 2025 20:21:17 GMT+0200 (heure d’été d’Europe centrale),The main experiment item,0.8500000238418579,False,C:/Users/rekbi/OneDrive/Bureau,False,mono,False,18,no,#000000,no,no,768,1131,2249,1,1,a75f6f75-437c-2915-eb43-01debc9446dd,osweb,0,osweb,,osweb,2.2.1,https://jatos.mindprobe.eu,1,1040,1920,0,0,1,0,q,q,q,space,space,1,1197,1197,473,5862,1957,50099,6335,15937,18973,space,space,space,2,osweb,0,0,0,0,0,0,1745518939824,train_a1,train_e1,fill_sheng1,fill_shong1,1024,2,48000,-16,experiment,,1,odd,346128,160735,117,347327,161212,144006,186067,158647,159895,343797,344977,236178,98,145970,128063,167078,Nouvelle expérience,27,103592,32,1024
1,0,85,85,3164,3164,#000000,osweb,osweb,0,osweb,1,1,1,undefined,undefined,undefined,q,q,0,27,1,0,0,0,0,27,0,0,0,0,1,1,27,27,0,27,0,0,1,0,0,0,0,0,stim0,0.3034090531139175,-13.106267055309061,Thu Apr 24 2025 20:21:17 GMT+0200 (heure d’été d’Europe centrale),The main experiment item,0.8500000238418579,False,C:/Users/rekbi/OneDrive/Bureau,False,mono,False,18,no,#000000,no,no,768,1131,2249,1,1,a75f6f75-437c-2915-eb43-01debc9446dd,osweb,0,osweb,,osweb,2.2.1,https://jatos.mindprobe.eu,1,1040,1920,0,0,1,0,q,q,q,space,space,1,819,819,473,5862,1957,50099,6335,15937,18973,space,space,space,2,osweb,0,0,0,0,0,0,1745518939824,train_a1,train_e1,stim_dao1,stim_dao4,1024,2,48000,-16,experiment,,1,odd,349807,160735,117,350643,161212,144006,186067,158647,159895,347329,348527,236178,98,145970,128063,167078,Nouvelle expérience,28,104411,33,1024
1,0,85,85,3083,3083,#000000,osweb,osweb,0,osweb,1,1,1,undefined,undefined,undefined,q,q,0,28,1,0,0,0,0,28,0,0,0,0,1,1,28,28,0,28,0,0,1,0,0,0,0,0,stim0,0.3034090531139175,-13.106267055309061,Thu Apr 24 2025 20:21:17 GMT+0200 (heure d’été d’Europe centrale),The main experiment item,0.8500000238418579,False,C:/Users/rekbi/OneDrive/Bureau,False,mono,False,18,no,#000000,no,no,768,1131,2249,1,1,a75f6f75-437c-2915-eb43-01debc9446dd,osweb,0,osweb,,osweb,2.2.1,https://jatos.mindprobe.eu,1,1040,1920,0,0,1,0,q,q,q,space,space,1,417,417,473,5862,1957,50099,6335,15937,18973,space,space,space,2,osweb,0,0,0,0,0,0,1745518939824,train_a1,train_e1,stim_sheng1,stim_sheng4,1024,2,48000,-16,experiment,,1,odd,353027,160735,117,353458,161212,144006,186067,158647,159895,350644,351827,236178,98,145970,128063,167078,Nouvelle expérience,29,104828,34,1024
1,0,86,86,3006,3006,#000000,osweb,osweb,0,osweb,1,1,1,undefined,undefined,undefined,m,q,0,29,1,0,0,0,0,29,0,0,0,0,1,1,29,29,0,29,0,0,1,0,0,0,0,0,stim0,0.3034090531139175,-13.106267055309061,Thu Apr 24 2025 20:21:17 GMT+0200 (heure d’été d’Europe centrale),The main experiment item,0.8500000238418579,False,C:/Users/rekbi/OneDrive/Bureau,False,mono,False,18,no,#000000,no,no,768,1131,2249,1,1,a75f6f75-437c-2915-eb43-01debc9446dd,osweb,0,osweb,,osweb,2.2.1,https://jatos.mindprobe.eu,1,1040,1920,0,0,1,0,m,m,q,space,space,1,375,375,473,5862,1957,50099,6335,15937,18973,space,space,space,2,osweb,0,0,0,0,0,0,1745518939824,train_a1,train_e1,stim_ma2,stim_ma2,1024,2,48000,-16,experiment,,1,odd,355457,160735,117,355840,161212,144006,186067,158647,159895,353460,354457,236178,98,145970,128063,167078,Nouvelle expérience,30,105203,35,1024
1,0,86,86,2929,2929,#000000,osweb,osweb,0,osweb,1,1,1,undefined,undefined,undefined,m,q,0,30,1,0,0,0,0,30,0,0,0,0,1,1,30,30,0,30,0,0,1,0,0,0,0,0,stim0,0.3034090531139175,-13.106267055309061,Thu Apr 24 2025 20:21:17 GMT+0200 (heure d’été d’Europe centrale),The main experiment item,0.8500000238418579,False,C:/Users/rekbi/OneDrive/Bureau,False,mono,False,18,no,#000000,no,no,768,1131,2249,1,1,a75f6f75-437c-2915-eb43-01debc9446dd,osweb,0,osweb,,osweb,2.2.1,https://jatos.mindprobe.eu,1,1040,1920,0,0,1,0,m,m,q,space,space,1,245,245,473,5862,1957,50099,6335,15937,18973,space,space,space,2,osweb,0,0,0,0,0,0,1745518939824,train_a1,train_e1,stim_dao3,stim_dao3,1024,2,48000,-16,experiment,,1,odd,357937,160735,117,358189,161212,144006,186067,158647,159895,355842,356887,236178,98,145970,128063,167078,Nouvelle expérience,31,105448,36,1024
1,0,86,86,2871,2871,#000000,osweb,osweb,0,osweb,1,1,1,undefined,undefined,undefined,q,q,0,31,1,0,0,0,0,31,0,0,0,0,1,1,31,31,0,31,0,0,1,0,0,0,0,0,stim0,0.3034090531139175,-13.106267055309061,Thu Apr 24 2025 20:21:17 GMT+0200 (heure d’été d’Europe centrale),The main experiment item,0.8500000238418579,False,C:/Users/rekbi/OneDrive/Bureau,False,mono,False,18,no,#000000,no,no,768,1131,2249,1,1,a75f6f75-437c-2915-eb43-01debc9446dd,osweb,0,osweb,,osweb,2.2.1,https://jatos.mindprobe.eu,1,1040,1920,0,0,1,0,q,q,q,space,space,1,773,773,473,5862,1957,50099,6335,15937,18973,space,space,space,2,osweb,0,0,0,0,0,0,1745518939824,train_a1,train_e1,stim_dao2,stim_dao3,1024,2,48000,-16,experiment,,1,odd,361037,160735,117,361821,161212,144006,186067,158647,159895,358191,359991,236178,98,145970,128063,167078,Nouvelle expérience,32,106221,37,1024
1,0,87,87,2828,2828,#000000,osweb,osweb,0,osweb,1,1,1,undefined,undefined,undefined,m,q,0,32,1,0,0,0,0,32,0,0,0,0,1,1,32,32,0,32,0,0,1,0,0,0,0,0,stim0,0.3034090531139175,-13.106267055309061,Thu Apr 24 2025 20:21:17 GMT+0200 (heure d’été d’Europe centrale),The main experiment item,0.8500000238418579,False,C:/Users/rekbi/OneDrive/Bureau,False,mono,False,18,no,#000000,no,no,768,1131,2249,1,1,a75f6f75-437c-2915-eb43-01debc9446dd,osweb,0,osweb,,osweb,2.2.1,https://jatos.mindprobe.eu,1,1040,1920,0,0,1,0,m,m,q,space,space,1,1239,1239,473,5862,1957,50099,6335,15937,18973,space,space,space,2,osweb,0,0,0,0,0,0,1745518939824,train_a1,train_e1,stim_sheng3,stim_sheng3,1024,2,48000,-16,experiment,,1,odd,364917,160735,117,366169,161212,144006,186067,158647,159895,361822,363367,236178,98,145970,128063,167078,Nouvelle expérience,33,107460,38,1024
1,0,87,87,2771,2771,#000000,osweb,osweb,0,osweb,1,1,1,undefined,undefined,undefined,m,q,0,33,1,0,0,0,0,33,0,0,0,0,1,1,33,33,0,33,0,0,1,0,0,0,0,0,stim0,0.3034090531139175,-13.106267055309061,Thu Apr 24 2025 20:21:17 GMT+0200 (heure d’été d’Europe centrale),The main experiment item,0.8500000238418579,False,C:/Users/rekbi/OneDrive/Bureau,False,mono,False,18,no,#000000,no,no,768,1131,2249,1,1,a75f6f75-437c-2915-eb43-01debc9446dd,osweb,0,osweb,,osweb,2.2.1,https://jatos.mindprobe.eu,1,1040,1920,0,0,1,0,m,m,q,space,space,1,611,611,473,5862,1957,50099,6335,15937,18973,space,space,space,2,osweb,0,0,0,0,0,0,1745518939824,train_a1,train_e1,stim_yi1,stim_yi1,1024,2,48000,-16,experiment,,1,odd,368038,160735,117,368651,161212,144006,186067,158647,159895,366171,367107,236178,98,145970,128063,167078,Nouvelle expérience,34,108071,39,1024
1,0,88,88,2703,2703,#000000,osweb,osweb,0,osweb,1,1,1,undefined,undefined,undefined,q,q,0,34,1,0,0,0,0,34,0,0,0,0,1,1,34,34,0,34,0,0,1,0,0,0,0,0,stim0,0.3034090531139175,-13.106267055309061,Thu Apr 24 2025 20:21:17 GMT+0200 (heure d’été d’Europe centrale),The main experiment item,0.8500000238418579,False,C:/Users/rekbi/OneDrive/Bureau,False,mono,False,18,no,#000000,no,no,768,1131,2249,1,1,a75f6f75-437c-2915-eb43-01debc9446dd,osweb,0,osweb,,osweb,2.2.1,https://jatos.mindprobe.eu,1,1040,1920,0,0,1,0,q,q,q,space,space,1,57,57,473,5862,1957,50099,6335,15937,18973,space,space,space,2,osweb,0,0,0,0,0,0,1745518939824,train_a1,train_e1,stim_ma2,stim_ma4,1024,2,48000,-16,experiment,,1,odd,370678,160735,117,370750,161212,144006,186067,158647,159895,368653,369647,236178,98,145970,128063,167078,Nouvelle expérience,35,108128,40,1024
1,0,88,88,2686,2686,#000000,osweb,osweb,0,osweb,1,1,1,undefined,undefined,undefined,m,q,0,35,1,0,0,0,0,35,0,0,0,0,1,1,35,35,0,35,0,0,1,0,0,0,0,0,stim0,0.3034090531139175,-13.106267055309061,Thu Apr 24 2025 20:21:17 GMT+0200 (heure d’été d’Europe centrale),The main experiment item,0.8500000238418579,False,C:/Users/rekbi/OneDrive/Bureau,False,mono,False,18,no,#000000,no,no,768,1131,2249,1,1,a75f6f75-437c-2915-eb43-01debc9446dd,osweb,0,osweb,,osweb,2.2.1,https://jatos.mindprobe.eu,1,1040,1920,0,0,1,0,m,m,q,space,space,1,2012,2012,473,5862,1957,50099,6335,15937,18973,space,space,space,2,osweb,0,0,0,0,0,0,1745518939824,train_a1,train_e1,fill_seng4,fill_seng4,1024,2,48000,-16,experiment,,1,odd,374527,160735,117,376547,161212,144006,186067,158647,159895,370752,372637,236178,98,145970,128063,167078,Nouvelle expérience,36,110140,41,1024
1,0,88,88,2635,2635,#000000,osweb,osweb,0,osweb,1,1,1,undefined,undefined,undefined,m,q,0,36,1,0,0,0,0,36,0,0,0,0,1,1,36,36,0,36,0,0,1,0,0,0,0,0,stim0,0.3034090531139175,-13.106267055309061,Thu Apr 24 2025 20:21:17 GMT+0200 (heure d’été d’Europe centrale),The main experiment item,0.8500000238418579,False,C:/Users/rekbi/OneDrive/Bureau,False,mono,False,18,no,#000000,no,no,768,1131,2249,1,1,a75f6f75-437c-2915-eb43-01debc9446dd,osweb,0,osweb,,osweb,2.2.1,https://jatos.mindprobe.eu,1,1040,1920,0,0,1,0,m,m,q,space,space,1,541,541,473,5862,1957,50099,6335,15937,18973,space,space,space,2,osweb,0,0,0,0,0,0,1745518939824,train_a1,train_e1,stim_ban3,stim_ban3,1024,2,48000,-16,experiment,,1,odd,379467,160735,117,380013,161212,144006,186067,158647,159895,376549,378007,236178,98,145970,128063,167078,Nouvelle expérience,37,110681,42,1024
1,0,88,88,2576,2576,#000000,osweb,osweb,0,osweb,1,1,1,undefined,undefined,undefined,q,q,0,37,1,0,0,0,0,37,0,0,0,0,1,1,37,37,0,37,0,0,1,0,0,0,0,0,stim0,0.3034090531139175,-13.106267055309061,Thu Apr 24 2025 20:21:17 GMT+0200 (heure d’été d’Europe centrale),The main experiment item,0.8500000238418579,False,C:/Users/rekbi/OneDrive/Bureau,False,mono,False,18,no,#000000,no,no,768,1131,2249,1,1,a75f6f75-437c-2915-eb43-01debc9446dd,osweb,0,osweb,,osweb,2.2.1,https://jatos.mindprobe.eu,1,1040,1920,0,0,1,0,q,q,q,space,space,1,91,91,473,5862,1957,50099,6335,15937,18973,space,space,space,2,osweb,0,0,0,0,0,0,1745518939824,train_a1,train_e1,fill_pan1,fill_pan3,1024,2,48000,-16,experiment,,1,odd,382337,160735,117,382445,161212,144006,186067,158647,159895,380014,380947,236178,98,145970,128063,167078,Nouvelle expérience,38,110772,43,1024
1,0,89,89,2553,2553,#000000,osweb,osweb,0,osweb,1,1,1,undefined,undefined,undefined,m,q,0,38,1,0,0,0,0,38,0,0,0,0,1,1,38,38,0,38,0,0,1,0,0,0,0,0,stim0,0.3034090531139175,-13.106267055309061,Thu Apr 24 2025 20:21:17 GMT+0200 (heure d’été d’Europe centrale),The main experiment item,0.8500000238418579,False,C:/Users/rekbi/OneDrive/Bureau,False,mono,False,18,no,#000000,no,no,768,1131,2249,1,1,a75f6f75-437c-2915-eb43-01debc9446dd,osweb,0,osweb,,osweb,2.2.1,https://jatos.mindprobe.eu,1,1040,1920,0,0,1,0,m,m,q,space,space,1,1538,1538,473,5862,1957,50099,6335,15937,18973,space,space,space,2,osweb,0,0,0,0,0,0,1745518939824,train_a1,train_e1,fill_pan3,fill_pan3,1024,2,48000,-16,experiment,,1,odd,385227,160735,117,386776,161212,144006,186067,158647,159895,382447,383837,236178,98,145970,128063,167078,Nouvelle expérience,39,112310,44,1024
1,0,89,89,2499,2499,#000000,osweb,osweb,0,osweb,1,1,1,undefined,undefined,undefined,q,q,0,39,1,0,0,0,0,39,0,0,0,0,1,1,39,39,0,39,0,0,1,0,0,0,0,0,stim0,0.3034090531139175,-13.106267055309061,Thu Apr 24 2025 20:21:17 GMT+0200 (heure d’été d’Europe centrale),The main experiment item,0.8500000238418579,False,C:/Users/rekbi/OneDrive/Bureau,False,mono,False,18,no,#000000,no,no,768,1131,2249,1,1,a75f6f75-437c-2915-eb43-01debc9446dd,osweb,0,osweb,,osweb,2.2.1,https://jatos.mindprobe.eu,1,1040,1920,0,0,1,0,q,q,q,space,space,1,156,156,473,5862,1957,50099,6335,15937,18973,space,space,space,2,osweb,0,0,0,0,0,0,1745518939824,train_a1,train_e1,fill_tao2,fill_tiao4,1024,2,48000,-16,experiment,,1,odd,389257,160735,117,389425,161212,144006,186067,158647,159895,386778,388137,236178,98,145970,128063,167078,Nouvelle expérience,40,112466,45,1024
